timestamp,ax,ay,az,wx,wy,wz,mx,my,mz
1751361557374537300,0.04668082669377327,-0.06194281950592995,-9.820837020874023,0.0029435649048537016,-0.0041712503880262375,-0.002675578696653247,-0.3369809091091156,-0.4257572591304779,0.46586981415748596
1751361557374543486,0.04001454636454582,-0.06070119887590408,-9.815719604492188,0.0015157406451180577,-0.0034775962121784687,-0.001029237057082355,-0.3440442681312561,-0.4314495325088501,0.46542367339134216
1751361557384651699,0.036751944571733475,-0.05909331515431404,-9.799208641052246,0.0021970749367028475,-0.0028453117702156305,-0.0022387548815459013,-0.32689350843429565,-0.43953460454940796,0.4630849361419678
1751361557394624798,0.029641788452863693,-0.04719594866037369,-9.803092956542969,0.002577740466222167,-0.0027243306394666433,-0.002771074417978525,-0.33392441272735596,-0.4332315921783447,0.45579060912132263
1751361557414557081,0.03165159374475479,-0.057367414236068726,-9.810630798339844,0.0019221052061766386,-0.0032584574073553085,-0.0021926085464656353,-0.337348997592926,-0.43588387966156006,0.4589836299419403
1751361557429524642,0.022257568314671516,-0.05297171324491501,-9.814106941223145,0.0021431664936244488,-0.0037673802580684423,-0.0021871801000088453,-0.3405124843120575,-0.4286032021045685,0.46564674377441406
1751361557459606989,0.022407760843634605,-0.053418830037117004,-9.804594039916992,0.004402656573802233,-0.0032647266052663326,-0.0017629970097914338,-0.3335915207862854,-0.42035409808158875,0.45923471450805664
1751361557469577523,0.02503512240946293,-0.0452190563082695,-9.827117919921875,0.0030622263438999653,-0.0029139448888599873,-0.0021225051023066044,-0.33021828532218933,-0.4209478497505188,0.4560237228870392
1751361557494595418,0.029577132314443588,-0.04893684759736061,-9.826269149780273,0.003043372416868806,-0.0035586440935730934,-0.002118249423801899,-0.3337499499320984,-0.4237942099571228,0.4558006227016449
1751361557514607912,0.02747957967221737,-0.0528152771294117,-9.821065902709961,0.00279492256231606,-0.003864141646772623,-0.002523434814065695,-0.3232874274253845,-0.42754507064819336,0.4598872661590576
1751361557529598879,0.026954108849167824,-0.0511336624622345,-9.823370933532715,0.0020509648602455854,-0.0027595211286097765,-0.0017985544400289655,-0.32666072249412537,-0.42695093154907227,0.46309828758239746
1751361557559624062,0.02983432449400425,-0.04771553352475166,-9.81512451171875,0.0027861231938004494,-0.003738350234925747,-0.002380909863859415,-0.34398606419563293,-0.42830365896224976,0.4654270112514496
1751361557577133891,0.023521699011325836,-0.04836908355355263,-9.816387176513672,0.002264574868604541,-0.004000542219728231,-0.0015165192307904363,-0.3370712995529175,-0.4408980906009674,0.4727146625518799
1751361557594618106,0.04125862196087837,-0.06175701320171356,-9.809503555297852,0.0036344677209854126,-0.004100889433175325,-0.003138631582260132,-0.32973331212997437,-0.42547306418418884,0.4766016900539398
1751361557614591985,0.03468359261751175,-0.054109618067741394,-9.826445579528809,0.0025190270971506834,-0.003995155915617943,-0.002051073359325528,-0.3438277244567871,-0.4248639643192291,0.46886110305786133
1751361557632089734,0.023917829617857933,-0.05952594801783562,-9.819723129272461,0.0026643075980246067,-0.0027528710197657347,-0.0023487783037126064,-0.3374302089214325,-0.4449269473552704,0.4624190330505371
1751361557659608119,0.039035242050886154,-0.0528402179479599,-9.818490982055664,0.003492496209219098,-0.0014546799939125776,-0.0011214823462069035,-0.33405691385269165,-0.44552111625671387,0.45920801162719727
1751361557679610275,0.019139336422085762,-0.04706438630819321,-9.818074226379395,0.0032482005190104246,-0.004671675153076649,-0.0011701268376782537,-0.32671889662742615,-0.43009641766548157,0.4630949795246124
1751361557694624157,0.03458363935351372,-0.05649625509977341,-9.81070613861084,0.0033349995501339436,-0.003949887119233608,-0.00244429730810225,-0.33350732922554016,-0.42605680227279663,0.4660896062850952
1751361557714591998,0.031166143715381622,-0.053379081189632416,-9.811742782592773,0.0021425141021609306,-0.005170266143977642,-0.0029578267131000757,-0.33731386065483093,-0.4386354982852936,0.46242567896842957
1751361557732093678,0.02003750018775463,-0.05460772290825844,-9.818013191223145,0.0018408976029604673,-0.0030416720546782017,-0.0018739663064479828,-0.34059667587280273,-0.42290088534355164,0.4587918519973755
1751361557749603956,0.029644649475812912,-0.054263174533843994,-9.812217712402344,0.0032505178824067116,-0.004417498130351305,-0.00175417959690094,-0.33350732922554016,-0.42605680227279663,0.4660896062850952
1751361557777082968,0.03254935145378113,-0.05122514069080353,-9.817549705505371,0.0029369306284934282,-0.0033062673173844814,-0.002242345828562975,-0.3269354999065399,-0.4366832673549652,0.4596574902534485
1751361557794618930,0.028874846175312996,-0.0697789266705513,-9.81607437133789,0.0020972902420908213,-0.0027221739292144775,-0.0007496178732253611,-0.34029605984687805,-0.42201757431030273,0.469084233045578
1751361557814608644,0.029472585767507553,-0.04779074713587761,-9.822747230529785,0.0033719828352332115,-0.00362569373100996,-0.001777993398718536,-0.3303668797016144,-0.4392346441745758,0.4628652036190033
1751361557834634855,0.027692465111613274,-0.05022802576422691,-9.808743476867676,0.0015829880721867085,-0.004617707338184118,-0.001433302299119532,-0.32687729597091675,-0.43353694677352905,0.4596608877182007
1751361557859625003,0.019479062408208847,-0.058405496180057526,-9.823042869567871,0.003082109382376075,-0.003083442337810993,-0.0021869014017283916,-0.32660970091819763,-0.4237053096294403,0.46311619877815247
1751361557879632927,0.020897360518574715,-0.058143701404333115,-9.815215110778809,0.0022916989400982857,-0.0029189272318035364,-0.0014260961906984448,-0.326693058013916,-0.43894585967063904,0.4699464738368988
1751361557894603499,0.02868945524096489,-0.040415845811367035,-9.816675186157227,0.00321346428245306,-0.003381619229912758,-0.0023901720996946096,-0.33741405606269836,-0.43893009424209595,0.45899492502212524
1751361557914587925,0.026273274794220924,-0.0466902032494545,-9.816341400146484,0.004005045164376497,-0.0030540472362190485,-0.002987884683534503,-0.33415719866752625,-0.4458152949810028,0.45577722787857056
1751361557932107382,0.03112315945327282,-0.05545927956700325,-9.812485694885254,0.0021361764520406723,-0.0034023968037217855,-0.002299364423379302,-0.34088754653930664,-0.43863052129745483,0.4587751626968384
1751361557949615632,0.029561446979641914,-0.05315307900309563,-9.810935974121094,0.0030741875525563955,-0.0042963698506355286,-0.0022490806877613068,-0.32691672444343567,-0.44543135166168213,0.46652349829673767
1751361557977116960,0.02251920849084854,-0.06684490293264389,-9.812970161437988,0.0017991523491218686,-0.0027844994328916073,-0.0027449459303170443,-0.32663488388061523,-0.4357999563217163,0.469949871301651
1751361557994605494,0.021205877885222435,-0.059298135340213776,-9.8141450881958,0.0028169467113912106,-0.0031346925534307957,-0.002490324666723609,-0.34069404006004333,-0.43794167041778564,0.4656512141227722
1751361558014644718,0.020593177527189255,-0.04942869395017624,-9.812055587768555,0.003094407496973872,-0.004635525867342949,-0.0019788038916885853,-0.33015748858451843,-0.4325488805770874,0.4663171172142029
1751361558034615453,0.027752891182899475,-0.05250990390777588,-9.816481590270996,0.004541992209851742,-0.0041524190455675125,-0.0022908111568540335,-0.32663488388061523,-0.4357999563217163,0.469949871301651
1751361558049584474,0.03114095702767372,-0.05150061845779419,-9.820893287658691,0.0034442641772329807,-0.003600184340029955,-0.0025089432019740343,-0.3367874026298523,-0.42506837844848633,0.47274574637413025
1751361558079612198,0.022671258077025414,-0.05712181329727173,-9.80612564086914,0.0016105225076898932,-0.0028370418585836887,-0.0018726660637184978,-0.34059667587280273,-0.42290088534355164,0.4587918519973755
1751361558094637938,0.03411626070737839,-0.0494939424097538,-9.8118896484375,0.002001561690121889,-0.0037892383988946676,-0.002107117557898164,-0.3407360017299652,-0.43508991599082947,0.4622238576412201
1751361558114592455,0.03572521731257439,-0.051598671823740005,-9.816043853759766,0.0030884426087141037,-0.0034112371504306793,-0.0021029661875218153,-0.33366304636001587,-0.44424307346343994,0.4729454219341278
1751361558134618719,0.030568283051252365,-0.05524076521396637,-9.80876350402832,0.0032041592057794333,-0.004100876394659281,-0.0033127046190202236,-0.3266509771347046,-0.4417971968650818,0.4733739197254181
1751361558149655621,0.022167231887578964,-0.06549433618783951,-9.809213638305664,0.002473296597599983,-0.0025566406548023224,-0.0018019303679466248,-0.3332487642765045,-0.4223221242427826,0.47295451164245605
1751361558179633073,0.040009863674640656,-0.06085161119699478,-9.815508842468262,0.003299822099506855,-0.0024330851156264544,-0.00180071743670851,-0.34067097306251526,-0.4320437014102936,0.4622126519680023
1751361558197097156,0.04283422604203224,-0.04306846857070923,-9.813163757324219,0.00304416217841208,-0.003315445501357317,-0.0025780941359698772,-0.33713939785957336,-0.4291973412036896,0.4624357223510742
1751361558214617582,0.03233122453093529,-0.054433424025774,-9.81833553314209,0.0034251415636390448,-0.003455156460404396,-0.003058368107303977,-0.32697758078575134,-0.4338310956954956,0.456230103969574
1751361558234609004,0.015084736049175262,-0.04986116662621498,-9.812365531921387,0.002692826557904482,-0.0038071339949965477,-0.0018754740012809634,-0.3307676911354065,-0.44041258096694946,0.44914212822914124
1751361558254579542,0.03739796206355095,-0.05592210218310356,-9.812177658081055,0.002768361009657383,-0.0037770806811749935,-0.0022572940215468407,-0.3341829776763916,-0.4369671046733856,0.4489256739616394
1751361558279665679,0.01728571392595768,-0.04073294624686241,-9.822175979614258,0.0018643655348569155,-0.0020888138096779585,-0.000986442668363452,-0.3302505910396576,-0.4329424202442169,0.4628719091415405
1751361558297043998,0.019500596448779106,-0.05166701599955559,-9.824692726135254,0.002155888359993696,-0.003592109540477395,-0.0025337261613458395,-0.3373398184776306,-0.4297860562801361,0.4555741548538208
1751361558314625022,0.03474428132176399,-0.052183981984853745,-9.811872482299805,0.0032117068767547607,-0.003802679479122162,-0.002119855722412467,-0.34747570753097534,-0.434002161026001,0.468631386756897
1751361558334616213,0.02928757295012474,-0.04812522605061531,-9.823007583618164,0.002758283168077469,-0.002406962914392352,-0.002733874600380659,-0.32280242443084717,-0.4320698380470276,0.48046523332595825
1751361558352082205,0.026800446212291718,-0.043379880487918854,-9.81119155883789,0.0024639605544507504,-0.003960894886404276,-0.0028591558802872896,-0.32691672444343567,-0.44543135166168213,0.46652349829673767
1751361558369628797,0.02009620890021324,-0.05059470981359482,-9.81458568572998,0.0017164910677820444,-0.0030657921452075243,-0.0034652005415409803,-0.33364686369895935,-0.4382462203502655,0.4695214331150055
1751361558397082569,0.03616135194897652,-0.04643750190734863,-9.802277565002441,0.003771905554458499,-0.003909433260560036,-0.001396660110913217,-0.333313912153244,-0.42536795139312744,0.4729654788970947
1751361558414613879,0.0361432209610939,-0.06483684480190277,-9.823681831359863,0.002796468324959278,-0.0024431960191577673,-0.0012055960251018405,-0.34396693110466003,-0.4370529353618622,0.47229287028312683
1751361558434612388,0.024733103811740875,-0.047942936420440674,-9.809273719787598,0.0026697234716266394,-0.003553225891664624,-0.0017619290156289935,-0.3298567533493042,-0.4316655993461609,0.4766092002391815
1751361558454548814,0.030776958912611008,-0.042807888239622116,-9.805778503417969,0.0028613137546926737,-0.0026522199623286724,-0.001242167898453772,-0.33000797033309937,-0.4352053999900818,0.47316086292266846
1751361558472113681,0.033042531460523605,-0.058227840811014175,-9.815279006958008,0.00271988264285028,-0.0037236108910292387,-0.0020696825813502073,-0.3339405655860901,-0.43922966718673706,0.4592146575450897
1751361558497073764,0.020869145169854164,-0.049645595252513885,-9.815187454223633,0.002683832310140133,-0.0045018489472568035,-0.0016745784087106586,-0.32688432931900024,-0.4334372282028198,0.45967546105384827
1751361558514641446,0.022380314767360687,-0.05594218149781227,-9.808269500732422,0.00253797834739089,-0.0040370444767177105,-0.0012224343372508883,-0.33414795994758606,-0.43971872329711914,0.4523678421974182
1751361558534652687,0.034420181065797806,-0.05087101086974144,-9.822380065917969,0.0037285012658685446,-0.0032745501957833767,-0.002508344128727913,-0.3305512070655823,-0.4338257610797882,0.4525795578956604
1751361558554580409,0.04051663726568222,-0.05631694942712784,-9.82237720489502,0.00364941218867898,-0.003987788688391447,-0.0022888402454555035,-0.322944700717926,-0.4295126795768738,0.47360703349113464
1751361558569648142,0.02770908921957016,-0.040949996560811996,-9.813394546508789,0.003794990247115493,-0.004225871060043573,-0.002015504753217101,-0.3197113275527954,-0.44229623675346375,0.4738277792930603
1751361558589631045,0.020776214078068733,-0.06119385361671448,-9.824563980102539,0.003084826748818159,-0.00419230991974473,-0.0006824852316640317,-0.3306093215942383,-0.436972051858902,0.452576220035553
1751361558617085212,0.026835650205612183,-0.04631566256284714,-9.817606925964355,0.002904536435380578,-0.004089450463652611,-0.0011455147759988904,-0.31658047437667847,-0.4406277537345886,0.46032795310020447
1751361558634635134,0.01889435574412346,-0.05392379313707352,-9.82030963897705,0.001428696559742093,-0.003786469576880336,-0.003220240119844675,-0.3375212550163269,-0.43912458419799805,0.45557886362075806
1751361558654593563,0.024641387164592743,-0.03355935961008072,-9.818989753723145,0.002347607398405671,-0.004090959671884775,-0.002574583049863577,-0.33405691385269165,-0.44552111625671387,0.45920801162719727
1751361558674627013,0.0384855717420578,-0.050271205604076385,-9.805051803588867,0.0017734995344653726,-0.003418241161853075,-0.0020523793064057827,-0.33363077044487,-0.43224936723709106,0.4660973846912384
1751361558699613158,0.02169966883957386,-0.03977685421705246,-9.817347526550293,0.0039009149186313152,-0.002808066550642252,-0.002303933957591653,-0.3266678750514984,-0.4268507957458496,0.46311286091804504
1751361558717093621,0.023714246228337288,-0.0682889074087143,-9.802949905395508,0.00313357962295413,-0.0027854610234498978,-0.0026395663153380156,-0.31661519408226013,-0.4378761649131775,0.4568859934806824
1751361558734624860,0.032852448523044586,-0.05343315750360489,-9.81888198852539,0.0034946103114634752,-0.0035614818334579468,-0.0010833358392119408,-0.3304581046104431,-0.4334322214126587,0.45602503418922424
1751361558754517604,0.04326608031988144,-0.05787905305624008,-9.817809104919434,0.0024792293552309275,-0.0034922363702207804,-0.0018199424957856536,-0.32352012395858765,-0.44012877345085144,0.45987391471862793
1751361558769621805,0.039778389036655426,-0.0591186061501503,-9.809906959533691,0.0025880339089781046,-0.003807586617767811,-0.001683694077655673,-0.31968778371810913,-0.43639907240867615,0.47038933634757996
1751361558789558653,0.02499651163816452,-0.049247950315475464,-9.814085960388184,0.0031984238885343075,-0.002974767005071044,-0.002002011751756072,-0.32664188742637634,-0.4356990158557892,0.4699641764163971
1751361558819550340,0.022766897454857826,-0.056712161749601364,-9.819647789001465,0.00285332091152668,-0.0031757517717778683,-0.0016175374621525407,-0.34088754653930664,-0.43863052129745483,0.4587751626968384
1751361558834686500,0.032717183232307434,-0.052117083221673965,-9.810790061950684,0.0031690478790551424,-0.004695115610957146,-0.0013293782249093056,-0.34104597568511963,-0.4420706331729889,0.45534107089042664
1751361558854518053,0.029610874131321907,-0.05224150791764259,-9.816641807556152,0.0027631346601992846,-0.0029856369365006685,-0.0030555855482816696,-0.33743715286254883,-0.44482722878456116,0.4624335467815399
1751361558874542944,0.029294906184077263,-0.05894539877772331,-9.819008827209473,0.002633195836097002,-0.0026272176764905453,-0.0015661553479731083,-0.3234691023826599,-0.4368823170661926,0.4598918557167053
1751361558899547258,0.03920004889369011,-0.051377248018980026,-9.816622734069824,0.0017259522574022412,-0.0028637624345719814,-0.002036120742559433,-0.3340056836605072,-0.4422754943370819,0.45922592282295227
1751361558917030698,0.03238210454583168,-0.052307743579149246,-9.808908462524414,0.0025411739479750395,-0.0034100906923413277,-0.0022583731915801764,-0.33027383685112,-0.4388403594493866,0.46631041169166565
1751361558934547223,0.030423970893025398,-0.04512391239404678,-9.815816879272461,0.0027836996596306562,-0.0024705163668841124,-0.0016629708698019385,-0.3234691023826599,-0.4368823170661926,0.4598918557167053
1751361558954503214,0.031049977988004684,-0.057408519089221954,-9.812812805175781,0.0030002621933817863,-0.003425091737881303,-0.0029179712291806936,-0.3408200740814209,-0.42938724160194397,0.45536911487579346
1751361558972063771,0.02512061409652233,-0.06388747692108154,-9.822087287902832,0.003510263515636325,-0.003414940321817994,-0.0027076448313891888,-0.3372206389904022,-0.43824124336242676,0.4658709466457367
1751361558989556059,0.034983716905117035,-0.050886135548353195,-9.822210311889648,0.0014477152144536376,-0.0025910059921443462,-0.0033395271748304367,-0.32335275411605835,-0.4305908679962158,0.45989853143692017
1751361559019549890,0.031656865030527115,-0.04193178191781044,-9.822160720825195,0.003507100511342287,-0.004429762251675129,-0.002351462608203292,-0.34087827801704407,-0.4325335621833801,0.45536577701568604
1751361559037023690,0.03550880774855614,-0.0526704266667366,-9.811458587646484,0.003643456846475601,-0.003295749193057418,-0.0022370433434844017,-0.3438182771205902,-0.41876697540283203,0.46545153856277466
1751361559054519977,0.037825167179107666,-0.06293154507875443,-9.80997371673584,0.0037653171457350254,-0.0037815968971699476,-0.0023233345709741116,-0.3299570083618164,-0.43195977807044983,0.473178505897522
1751361559074606833,0.03503604233264923,-0.04362832009792328,-9.812201499938965,0.00146977708209306,-0.0019891071133315563,-0.0025308188050985336,-0.3305905759334564,-0.4457205533981323,0.4594423174858093
1751361559089644589,0.027684573084115982,-0.0445893295109272,-9.81690502166748,0.0032282311003655195,-0.003817027434706688,-0.0034031514078378677,-0.3270265758037567,-0.430880069732666,0.4528174102306366
1751361559117096074,0.03436098247766495,-0.06059304252266884,-9.816636085510254,0.0027534200344234705,-0.0030400326941162348,-0.001815195195376873,-0.3338311016559601,-0.4328380823135376,0.45923593640327454
1751361559134615295,0.029201801866292953,-0.05180614814162254,-9.826528549194336,0.002456644782796502,-0.0040201712399721146,-0.0018510379595682025,-0.3300151824951172,-0.4351048767566681,0.47317519783973694
1751361559154592720,0.029508519917726517,-0.055574286729097366,-9.819273948669434,0.0024966951459646225,-0.004003753419965506,-0.0016606106655672193,-0.3297824263572693,-0.4225219786167145,0.4731885492801666
1751361559174589566,0.023869069293141365,-0.05243503302335739,-9.822068214416504,0.0031659055966883898,-0.003613329492509365,-0.0018397291423752904,-0.32639312744140625,-0.4171188473701477,0.46655359864234924
1751361559189627927,0.020831676200032234,-0.05289655923843384,-9.80935287475586,0.002002475783228874,-0.003191647818312049,-0.0020472093019634485,-0.3301153779029846,-0.43539944291114807,0.4697445034980774
1751361559209651405,0.01925918459892273,-0.043753400444984436,-9.808475494384766,0.003178849583491683,-0.003529089502990246,-0.0028812543023377657,-0.33367276191711426,-0.4293975830078125,0.4626700282096863
1751361559237113883,0.021201789379119873,-0.048543620854616165,-9.806180000305176,0.003114903811365366,-0.003182889660820365,-0.001068038516677916,-0.3406358063220978,-0.4347953200340271,0.46565455198287964
1751361559254517346,0.025782497599720955,-0.048832967877388,-9.8041410446167,0.002634775824844837,-0.0048783342353999615,-0.0027917674742639065,-0.3405844271183014,-0.4315493106842041,0.46567246317863464
1751361559274549427,0.04283919930458069,-0.05812531337141991,-9.810567855834961,0.002215833170339465,-0.0035220945719629526,-0.0013231749180704355,-0.33010631799697876,-0.429302453994751,0.4663349986076355
1751361559289553878,0.0345008447766304,-0.05621456354856491,-9.805925369262695,0.001907960744574666,-0.003987416625022888,-0.001609271508641541,-0.31964436173439026,-0.4330528676509857,0.4704214632511139
1751361559309529612,0.03759185969829559,-0.05447394400835037,-9.81199836730957,0.0023702138569206,-0.0026898146606981754,-0.001770197763107717,-0.3304651081562042,-0.43333134055137634,0.45603975653648376
1751361559336980715,0.03627720847725868,-0.047839805483818054,-9.80114459991455,0.003077543107792735,-0.003844894003123045,-0.001353431143797934,-0.33048123121261597,-0.4393285810947418,0.4594636857509613
1751361559354518544,0.02510971948504448,-0.045189760625362396,-9.812365531921387,0.003893449204042554,-0.003086517797783017,-0.0022854916751384735,-0.33019670844078064,-0.4444429278373718,0.47317951917648315
1751361559374533946,0.011829537339508533,-0.06281380355358124,-9.800691604614258,0.003022768534719944,-0.004930109716951847,-0.0024110714439302683,-0.3370690941810608,-0.4347006380558014,0.4693194031715393
1751361559392002070,0.034188274294137955,-0.06525902450084686,-9.826233863830566,0.00393784511834383,-0.0032404873054474592,-0.0017370765563100576,-0.33024856448173523,-0.4267456829547882,0.459477037191391
1751361559409537686,0.034004248678684235,-0.059219688177108765,-9.815187454223633,0.0021383336279541254,-0.0035446668043732643,-0.0027375395875424147,-0.31631314754486084,-0.43079566955566406,0.46378329396247864
1751361559439540022,0.030895916745066643,-0.06644364446401596,-9.820454597473145,0.0035478619392961264,-0.0030350119341164827,-0.0025472966954112053,-0.323175847530365,-0.4358988404273987,0.4701983630657196
1751361559449546080,0.01614455319941044,-0.057115547358989716,-9.807323455810547,0.0014204866020008922,-0.003050500061362982,-0.0014035969506949186,-0.32327598333358765,-0.43619304895401,0.466767817735672
1751361559474545339,0.02278296835720539,-0.04533062502741814,-9.820530891418457,0.0021588830277323723,-0.003039382165297866,-0.003372039645910263,-0.31964436173439026,-0.4330528676509857,0.4704214632511139
1751361559489562827,0.02438235841691494,-0.06330755352973938,-9.820310592651367,0.003548471489921212,-0.002932423958554864,-0.0015627057291567326,-0.3300221264362335,-0.4350051283836365,0.4731895327568054
1751361559509532254,0.027785876765847206,-0.04957736283540726,-9.816826820373535,0.002357641700655222,-0.003111855359748006,-0.0009580111363902688,-0.333453506231308,-0.43755653500556946,0.4763970673084259
1751361559539502737,0.04567893221974373,-0.048296280205249786,-9.819253921508789,0.00199735420756042,-0.004335148725658655,-0.00109309540130198,-0.3335795998573303,-0.42900291085243225,0.46611523628234863
1751361559554488190,0.030556749552488327,-0.057066209614276886,-9.816600799560547,0.0020765168592333794,-0.002461852040141821,-0.0008053634082898498,-0.32343435287475586,-0.4396331310272217,0.4633338153362274
1751361559574559588,0.03378840163350105,-0.044307585805654526,-9.822263717651367,0.003446232993155718,-0.003764514811336994,-0.003288403619080782,-0.32680743932724,-0.4390389621257782,0.4665447175502777
1751361559594542592,0.01969282329082489,-0.03516780957579613,-9.811153411865234,0.003052416257560253,-0.004451217129826546,-0.0023513687774538994,-0.3299219310283661,-0.4347105622291565,0.4766201674938202
1751361559609548227,0.03209598734974861,-0.044372040778398514,-9.80916690826416,0.003408008022233844,-0.0030460713896900415,-0.0022950514685362577,-0.326432466506958,-0.4290132522583008,0.47341591119766235
1751361559629534165,0.01978011056780815,-0.04819723591208458,-9.812712669372559,0.003971900325268507,-0.003205684944987297,-0.0025928951799869537,-0.31984472274780273,-0.4336416721343994,0.46356019377708435
1751361559649532284,0.019736336544156075,-0.04567350074648857,-9.810826301574707,0.0026942205149680376,-0.003146737813949585,-0.0029886376578360796,-0.3271501958370209,-0.43707138299942017,0.45282548666000366
1751361559674536159,0.013273341581225395,-0.04311080649495125,-9.817870140075684,0.002427221741527319,-0.004462333396077156,-0.0006197732873260975,-0.34414181113243103,-0.42554745078086853,0.4585981070995331
1751361559694501114,0.031850267201662064,-0.04360651224851608,-9.804298400878906,0.002009246964007616,-0.004403147380799055,-0.002844546688720584,-0.33009010553359985,-0.42330560088157654,0.46291103959083557
1751361559709553277,0.029040150344371796,-0.056067537516355515,-9.817557334899902,0.002481326460838318,-0.004211702849715948,-0.0026982128620147705,-0.33376386761665344,-0.42359480261802673,0.45583006739616394
1751361559739543514,0.02363814041018486,-0.05153977870941162,-9.803979873657227,0.00312852393835783,-0.003145313123241067,-0.0014411906013265252,-0.34048429131507874,-0.43125513195991516,0.46910300850868225
1751361559757028007,0.030977735295891762,-0.048264872282743454,-9.817530632019043,0.0033913685474544764,-0.0028824713081121445,-0.0017497461521998048,-0.33373793959617615,-0.4324430227279663,0.46268126368522644
1751361559774539959,0.03932957351207733,-0.05216163024306297,-9.81607437133789,0.0027239795308560133,-0.003909183666110039,-0.002126733073964715,-0.31674623489379883,-0.44396737217903137,0.4569087028503418
1751361559794522726,0.03017467074096203,-0.06125691905617714,-9.820804595947266,0.0037221000529825687,-0.0037385947071015835,-0.001473905984312296,-0.3233341574668884,-0.4393385648727417,0.4667644202709198
1751361559812069541,0.03312021493911743,-0.052925094962120056,-9.803622245788574,0.003923289943486452,-0.002884472021833062,-0.0015719705261290073,-0.323175847530365,-0.4358988404273987,0.4701983630657196
1751361559829620067,0.04083314538002014,-0.0560535304248333,-9.812782287597656,0.002083241706714034,-0.004493931774049997,-0.0029973487835377455,-0.3370528817176819,-0.42870333790779114,0.46589550375938416
1751361559849619459,0.04039112478494644,-0.057903844863176346,-9.796812057495117,0.003037560498341918,-0.0032440274953842163,-0.0017805362585932016,-0.3372112512588501,-0.4321434497833252,0.46246156096458435
1751361559869651989,0.03377671167254448,-0.06028618663549423,-9.816675186157227,0.00263246800750494,-0.002868704730644822,-0.0027696441393345594,-0.3302457928657532,-0.4414910674095154,0.4697665870189667
1751361559894614947,0.027282334864139557,-0.06277880817651749,-9.822509765625,0.0032233449164777994,-0.004781733267009258,-0.003519623540341854,-0.33717620372772217,-0.4348950982093811,0.46590331196784973
1751361559909618060,0.02063869871199131,-0.05886116251349449,-9.812674522399902,0.0033272483851760626,-0.004182221367955208,-0.0011687761871144176,-0.33726024627685547,-0.42919236421585083,0.45904889702796936
1751361559939619736,0.026665277779102325,-0.060334526002407074,-9.815014839172363,0.0027361041866242886,-0.004231282044202089,-0.002979032462462783,-0.34057509899139404,-0.42545273900032043,0.4622630476951599
1751361559957090333,0.030434420332312584,-0.044448766857385635,-9.81544017791748,0.002780719893053174,-0.004510791040956974,-0.003317479742690921,-0.33048826456069946,-0.439228892326355,0.4594782590866089
1751361559974608702,0.02551569975912571,-0.05185443535447121,-9.81151008605957,0.002719155978411436,-0.004172331653535366,-0.0027155696880072355,-0.32686567306518555,-0.4421849250793457,0.4665413796901703
1751361559994637838,0.03591853752732277,-0.05897976830601692,-9.809435844421387,0.003917010501027107,-0.003566989442333579,-0.002438367810100317,-0.3196775019168854,-0.42410457134246826,0.4635847508907318
1751361560012096379,0.03303199261426926,-0.059691887348890305,-9.808845520019531,0.0027155750431120396,-0.0031163038220256567,-0.0025330919306725264,-0.3269568979740143,-0.436382532119751,0.4597013592720032
1751361560029647667,0.02064642868936062,-0.051266420632600784,-9.81461238861084,0.0023531094193458557,-0.0019527417607605457,-0.001005538273602724,-0.3300319314002991,-0.4201596677303314,0.4629144072532654
1751361560059680380,0.030591493472456932,-0.04865137115120888,-9.808634757995605,0.004112284630537033,-0.003246429143473506,-0.0022546446416527033,-0.3334794044494629,-0.4287087321281433,0.469545841217041
1751361560077045436,0.03621082752943039,-0.06294804066419601,-9.815179824829102,0.0027352042961865664,-0.0031654261983931065,-0.0006213162560015917,-0.3198099434375763,-0.4363928735256195,0.4670019745826721
1751361560094541426,0.037485022097826004,-0.055861696600914,-9.801560401916504,0.003576544811949134,-0.0036567654460668564,-0.0013932905858382583,-0.33717620372772217,-0.4348950982093811,0.46590331196784973
1751361560112018700,0.022704211995005608,-0.06459835916757584,-9.825579643249512,0.0024550335947424173,-0.0037128713447600603,-0.0023320773616433144,-0.34390613436698914,-0.4277099370956421,0.46890103816986084
1751361560129463727,0.03726547211408615,-0.04332510009407997,-9.827715873718262,0.0033115397673100233,-0.002233207691460848,-0.0007069036946631968,-0.33390337228775024,-0.43578338623046875,0.45926186442375183
1751361560159530560,0.023114465177059174,-0.05901733413338661,-9.81501293182373,0.001175826066173613,-0.0036640670150518417,-0.002885636407881975,-0.3302878141403198,-0.4386400878429413,0.46633946895599365
1751361560174537546,0.028252586722373962,-0.05429635941982269,-9.817397117614746,0.003913486376404762,-0.002694680355489254,-0.0010903006186708808,-0.3375090956687927,-0.44777214527130127,0.46245938539505005
1751361560194563127,0.02747281640768051,-0.05346203222870827,-9.815478324890137,0.002077333861961961,-0.002922592218965292,-0.0023112399503588676,-0.33397772908210754,-0.44492578506469727,0.46268245577812195
1751361560214540076,0.030982648953795433,-0.055374033749103546,-9.825549125671387,0.003482129657641053,-0.003157192375510931,-0.001241463702172041,-0.3372182846069336,-0.43204376101493835,0.46247607469558716
1751361560229551022,0.0318472646176815,-0.031803954392671585,-9.815287590026855,0.0021179472096264362,-0.0029949485324323177,-0.0018593092681840062,-0.3340456187725067,-0.43322664499282837,0.4524041712284088
1751361560259553989,0.014794854447245598,-0.054158762097358704,-9.817340850830078,0.003325912868604064,-0.0033460829872637987,-0.0009081211173906922,-0.3308729827404022,-0.4344095289707184,0.44233229756355286
1751361560279545525,0.03345293551683426,-0.042063355445861816,-9.830348014831543,0.0017257538856938481,-0.004233631771057844,-0.0009045980987139046,-0.327241450548172,-0.43126899003982544,0.4459858238697052
1751361560294536674,0.03181305155158043,-0.059223271906375885,-9.811386108398438,0.0026108124293386936,-0.003983494825661182,-0.0022908055689185858,-0.33416199684143066,-0.4395180642604828,0.45239749550819397
1751361560314531516,0.02848786860704422,-0.05506114661693573,-9.810711860656738,0.0031436835415661335,-0.003358034184202552,-0.0019511120626702905,-0.32651400566101074,-0.4380563199520111,0.47685083746910095
1751361560329543237,0.02636183798313141,-0.06336383521556854,-9.820159912109375,0.0023046634159982204,-0.0032132905907928944,-0.0023895076010376215,-0.33364471793174744,-0.43204909563064575,0.46612635254859924
1751361560359509683,0.03129864111542702,-0.05596085265278816,-9.805397033691406,0.0040862481109797955,-0.0036948728375136852,-0.002522736322134733,-0.32640743255615234,-0.4169197976589203,0.4665825664997101
1751361560377039078,0.030468620359897614,-0.05132545903325081,-9.816558837890625,0.0032095767091959715,-0.002815420739352703,-0.002410625573247671,-0.3439902365207672,-0.42200765013694763,0.46204665303230286
1751361560394539536,0.032060202211141586,-0.05207481607794762,-9.816904067993164,0.003504138207063079,-0.0035443261731415987,-0.0018247108673676848,-0.3335445523262024,-0.43175452947616577,0.46955686807632446
1751361560414448252,0.028387606143951416,-0.06570503115653992,-9.815266609191895,0.0038109496235847473,-0.0032759755849838257,-0.002474833745509386,-0.33364471793174744,-0.43204909563064575,0.46612635254859924
1751361560434541984,0.026775242760777473,-0.06051664054393768,-9.815731048583984,0.0027579821180552244,-0.0031083154026418924,-0.0019970659632235765,-0.3268987238407135,-0.4332369863986969,0.4597046971321106
1751361560459552669,0.04121984541416168,-0.04960427060723305,-9.80433177947998,0.002623298903927207,-0.00253345281817019,-0.0024649868719279766,-0.33390337228775024,-0.43578338623046875,0.45926186442375183
1751361560479561358,0.019300853833556175,-0.06204245984554291,-9.819488525390625,0.002287740120664239,-0.0031571213621646166,-0.0021072612144052982,-0.33751893043518066,-0.43292704224586487,0.45218443870544434
1751361560494555985,0.03674684092402458,-0.05028769001364708,-9.808172225952148,0.0026979960966855288,-0.0033136748243123293,-0.0023741377517580986,-0.33009716868400574,-0.4232058823108673,0.4629255533218384
1751361560514540259,0.030584899708628654,-0.045999038964509964,-9.810327529907227,0.002144108060747385,-0.00407063402235508,-0.0027970564551651478,-0.32318297028541565,-0.4357987344264984,0.4702127277851105
1751361560532013840,0.024006294086575508,-0.05253509804606438,-9.817753791809082,0.002064141444861889,-0.002887694863602519,-0.0019452288979664445,-0.330355703830719,-0.42694059014320374,0.4560611844062805
1751361560549546210,0.029139293357729912,-0.04365140199661255,-9.80485725402832,0.0033306502737104893,-0.0029314393177628517,-0.0025068640243262053,-0.3339453637599945,-0.43293246626853943,0.4558347165584564
1751361560577006057,0.030794091522693634,-0.05348764359951019,-9.811245918273926,0.0022805368062108755,-0.0034237944055348635,-0.0024696127511560917,-0.32678234577178955,-0.4269455373287201,0.45971137285232544
1751361560594546211,0.03818540647625923,-0.046092212200164795,-9.821611404418945,0.0021177628077566624,-0.0031785480678081512,-0.0026673160027712584,-0.3304138779640198,-0.43008607625961304,0.4560578167438507
1751361560614553781,0.036699000746011734,-0.05044851452112198,-9.812591552734375,0.0027628475800156593,-0.003108704462647438,-0.0013751944061368704,-0.3263654410839081,-0.419770747423172,0.4700097441673279
1751361560634531427,0.025298021733760834,-0.045273106545209885,-9.807130813598633,0.002995019778609276,-0.0025067857932299376,-0.0021972162649035454,-0.3303719162940979,-0.4329374432563782,0.4594849646091461
1751361560652012288,0.026463689282536507,-0.052736930549144745,-9.804451942443848,0.0024886098690330982,-0.003649021964520216,-0.002662123879417777,-0.3269730508327484,-0.4423793852329254,0.4631252586841583
1751361560679552079,0.02757878415286541,-0.051506344228982925,-9.817910194396973,0.0028508026152849197,-0.0026731800753623247,-0.0009306994033977389,-0.32741600275039673,-0.440706342458725,0.44597578048706055
1751361560694561245,0.0481056272983551,-0.0590839609503746,-9.814984321594238,0.003373882034793496,-0.0022737823892384768,-0.0021793958730995655,-0.33009716868400574,-0.4232058823108673,0.4629255533218384
1751361560714556355,0.0149151049554348,-0.05822094902396202,-9.81731128692627,0.001464681001380086,-0.0032840436324477196,-0.002116486197337508,-0.32640743255615234,-0.4169197976589203,0.4665825664997101
1751361560734548493,0.02231612242758274,-0.04771595448255539,-9.80854320526123,0.004250667057931423,-0.0039051298517733812,-0.0011204449692741036,-0.3370857238769531,-0.4197554290294647,0.45905888080596924
1751361560749543289,0.011774095706641674,-0.06046076491475105,-9.813847541809082,0.0028079934418201447,-0.00522945960983634,-0.0029651743825525045,-0.3335445523262024,-0.43175452947616577,0.46955686807632446
1751361560769556381,0.03959759324789047,-0.06332232803106308,-9.824372291564941,0.0033120266161859035,-0.0038817892782390118,-0.0007414842257276177,-0.3333117961883545,-0.41917163133621216,0.4695702791213989
1751361560797017925,0.03346884995698929,-0.04194525629281998,-9.815007209777832,0.0017099488759413362,-0.0041024768725037575,-0.0022586623672395945,-0.33742555975914,-0.43253278732299805,0.45562970638275146
1751361560814545037,0.021134329959750175,-0.045162566006183624,-9.806254386901855,0.0028410926461219788,-0.0037208038847893476,-0.002266805851832032,-0.33382898569107056,-0.4266410171985626,0.45584142208099365
1751361560834477798,0.022022876888513565,-0.050185855478048325,-9.808879852294922,0.0020874720066785812,-0.003253849223256111,-0.001327235484495759,-0.32295748591423035,-0.423116534948349,0.4702405333518982
1751361560844544886,0.03340873867273331,-0.05185091495513916,-9.810297012329102,0.0022784729953855276,-0.0038305805064737797,-0.0024486202746629715,-0.33029502630233765,-0.43853959441185,0.4663538932800293
1751361560879557164,0.03514566272497177,-0.049604322761297226,-9.808095932006836,0.002084529958665371,-0.004359334707260132,-0.0018390640616416931,-0.3165953457355499,-0.4404275119304657,0.4603572189807892
1751361560894487869,0.027494177222251892,-0.057608384639024734,-9.814624786376953,0.002584179863333702,-0.004603935871273279,-0.0021653296425938606,-0.3271734416484833,-0.44296854734420776,0.4562641680240631
1751361560914537936,0.02750260755419731,-0.06086724251508713,-9.810942649841309,0.0022359320428222418,-0.0034529364202171564,-0.00199867133051157,-0.33027884364128113,-0.43254315853118896,0.4629300832748413
1751361560934543579,0.03129911050200462,-0.04965165629982948,-9.811132431030273,0.002442050026729703,-0.0022649469319730997,-0.002314910525456071,-0.32682186365127563,-0.4388391673564911,0.4665736258029938
1751361560952017218,0.027413737028837204,-0.06316984444856644,-9.816696166992188,0.0031756232492625713,-0.004114130511879921,-0.0019130856962874532,-0.33031100034713745,-0.44453686475753784,0.4697776734828949
1751361560969550325,0.028104538097977638,-0.0406954325735569,-9.820686340332031,0.004350476898252964,-0.0023808556143194437,-0.0019442008342593908,-0.31987547874450684,-0.43943825364112854,0.46701306104660034
1751361560997015675,0.017031248658895493,-0.054827526211738586,-9.818012237548828,0.004048348404467106,-0.004229556303471327,-0.0023572214413434267,-0.3233324885368347,-0.4331422448158264,0.46336957812309265
1751361561014560369,0.029560761526226997,-0.058166950941085815,-9.81058406829834,0.00255143572576344,-0.004432347137480974,-0.0024338336661458015,-0.31621167063713074,-0.42430439591407776,0.46381908655166626
1751361561034538254,0.018639951944351196,-0.061750300228595734,-9.815638542175293,0.003067700657993555,-0.004114015493541956,-0.0011887389700859785,-0.33680811524391174,-0.42476925253868103,0.4727887809276581
1751361561054516703,0.016776975244283676,-0.03888792544603348,-9.813294410705566,0.0032799364998936653,-0.002855640836060047,-0.0029613252263516188,-0.3301714360713959,-0.43234869837760925,0.4663461446762085
1751361561079548086,0.03413848951458931,-0.05197055637836456,-9.810894966125488,0.0024081123992800713,-0.004353906959295273,-0.0005981730064377189,-0.3164951503276825,-0.4401329457759857,0.46378782391548157
1751361561097015239,0.03372699394822121,-0.05612017959356308,-9.818998336791992,0.001817759359255433,-0.002540865447372198,-0.002032964490354061,-0.323406845331192,-0.4422841966152191,0.46679002046585083
1751361561114540501,0.04105621948838234,-0.05966246873140335,-9.809480667114258,0.002259144326671958,-0.0030195259023457766,-0.0028980395291000605,-0.33041128516197205,-0.4448310136795044,0.46634721755981445
1751361561134543991,0.038227736949920654,-0.057468779385089874,-9.81910228729248,0.0026165356393903494,-0.0029383560176938772,-0.0007758486899547279,-0.3335515856742859,-0.43165484070777893,0.4695712924003601
1751361561154505687,0.02510039135813713,-0.0652192234992981,-9.81179428100586,0.002314517740160227,-0.003471651580184698,-0.002070409245789051,-0.32297366857528687,-0.42911297082901,0.47366437315940857
1751361561169546319,0.03127221763134003,-0.0559614896774292,-9.82520866394043,0.0034724175930023193,-0.0035014308523386717,-0.0022991891019046307,-0.3231741189956665,-0.4297017455101013,0.4668033719062805
1751361561199532977,0.030343716964125633,-0.05605269595980644,-9.805788040161133,0.0017548119649291039,-0.0034171235747635365,-0.002206434030085802,-0.33353549242019653,-0.42565757036209106,0.4661475419998169
1751361561217015177,0.0289826188236475,-0.05624685809016228,-9.817851066589355,0.0023514674976468086,-0.0031920778565108776,-0.0020368306431919336,-0.3477868139743805,-0.42848819494247437,0.45497381687164307
1751361561234529224,0.02975773811340332,-0.05668788030743599,-9.804201126098633,0.001960303168743849,-0.0040648868307471275,-0.0022080005146563053,-0.33736738562583923,-0.42938682436943054,0.4556330144405365
1751361561254497352,0.03204082325100899,-0.060612812638282776,-9.814908027648926,0.0031634680926799774,-0.002840655390173197,-0.0024428758770227432,-0.33736738562583923,-0.42938682436943054,0.4556330144405365
1751361561264551170,0.020724425092339516,-0.062203675508499146,-9.811196327209473,0.002326413756236434,-0.002678890014067292,-0.0014912019250914454,-0.3441551923751831,-0.42534807324409485,0.4586273729801178
1751361561297005386,0.02124297432601452,-0.053526148200035095,-9.802789688110352,0.0029762652702629566,-0.0027325181290507317,-0.0028191343881189823,-0.3305956721305847,-0.43942293524742126,0.4560624957084656
1751361561314549122,0.034731198102235794,-0.05899697169661522,-9.812015533447266,0.002751953201368451,-0.002635075245052576,-0.0021890224888920784,-0.3410731852054596,-0.4416698217391968,0.45539990067481995
1751361561334534060,0.0270359106361866,-0.04383791238069534,-9.813666343688965,0.0027986590284854174,-0.0037206702399998903,-0.003610344370827079,-0.33023685216903687,-0.4353940486907959,0.4663572907447815
1751361561354496870,0.036665335297584534,-0.05589963123202324,-9.810669898986816,0.0024488670751452446,-0.004016600549221039,-0.001859629643149674,-0.3335838317871094,-0.44364815950393677,0.4764188826084137
1751361561369546758,0.02314211241900921,-0.053692612797021866,-9.809650421142578,0.004248840734362602,-0.0037097639869898558,-0.002908777678385377,-0.33741581439971924,-0.447377473115921,0.4659043848514557
1751361561389547755,0.03206244483590126,-0.044819414615631104,-9.812959671020508,0.0040640560910105705,-0.0035888187121599913,-0.0015795892104506493,-0.3301204741001129,-0.4291026294231415,0.46636393666267395
1751361561417006105,0.029818030074238777,-0.056602247059345245,-9.821615219116211,0.0024864154402166605,-0.003890407970175147,-0.0023012429010123014,-0.32706430554389954,-0.4365769922733307,0.4562855362892151
1751361561434529227,0.033618759363889694,-0.05905582383275032,-9.814026832580566,0.0019166774582117796,-0.004686356522142887,-0.002390520181506872,-0.3306538462638855,-0.44256842136383057,0.4560590982437134
1751361561454511527,0.03235789015889168,-0.048595577478408813,-9.807804107666016,0.0022210159804672003,-0.0027544908225536346,-0.001528634806163609,-0.323406845331192,-0.4422841966152191,0.46679002046585083
1751361561474550389,0.029984015971422195,-0.05316166207194328,-9.819692611694336,0.00180340267252177,-0.0039025661535561085,-0.0025572520680725574,-0.32722264528274536,-0.44001707434654236,0.45285168290138245
1751361561489555584,0.02370007522404194,-0.04212987795472145,-9.811619758605957,0.0034618317149579525,-0.0033542299643158913,-0.002123178681358695,-0.33022066950798035,-0.42939719557762146,0.4629334509372711
1751361561517019918,0.033671874552965164,-0.053158026188611984,-9.804509162902832,0.002708220621570945,-0.0029959215316921473,-0.0012634784216061234,-0.3339685797691345,-0.4388292133808136,0.45927318930625916
1751361561534545205,0.015320809558033943,-0.030755989253520966,-9.820039749145508,0.003738308558240533,-0.003595062531530857,-0.0026141360867768526,-0.34061411023139954,-0.43734675645828247,0.4691251814365387
1751361561554497832,0.02982417866587639,-0.04846003279089928,-9.81194019317627,0.0022068775724619627,-0.002244991483166814,-0.0014010322047397494,-0.3305794894695282,-0.43342649936676025,0.4526386559009552
1751361561572012833,0.023444341495633125,-0.06256011128425598,-9.814370155334473,0.003586605191230774,-0.0038090022280812263,-0.0016005946090444922,-0.3305794894695282,-0.43342649936676025,0.4526386559009552
1751361561589538166,0.037046559154987335,-0.05844737961888313,-9.82310962677002,0.002114497357979417,-0.0029033778700977564,-0.0015480807051062584,-0.3372251093387604,-0.4319440424442291,0.46249058842658997
1751361561619536324,0.03464849665760994,-0.06582851707935333,-9.815747261047363,0.001904356642626226,-0.004076560493558645,-0.0022625962737947702,-0.3479452133178711,-0.43192869424819946,0.4515400230884552
1751361561637027969,0.03771664947271347,-0.03862838074564934,-9.81423282623291,0.0023298212327063084,-0.0037148483097553253,-0.0026570174377411604,-0.34440410137176514,-0.4439274072647095,0.4620378017425537
1751361561654509868,0.038500573486089706,-0.05385323613882065,-9.811333656311035,0.001861937460489571,-0.0038852489087730646,-0.002298701787367463,-0.32984569668769836,-0.41937190294265747,0.4698043763637543
1751361561674523477,0.04159284010529518,-0.06082289665937424,-9.82455062866211,0.0007586145075038075,-0.004153621848672628,-0.0022873790003359318,-0.326847642660141,-0.42999133467674255,0.45972269773483276
1751361561689547049,0.02740311622619629,-0.04672275111079216,-9.822290420532227,0.0031646278221160173,-0.0035026399418711662,-0.003677648026496172,-0.33746758103370667,-0.4296814501285553,0.4522024989128113
1751361561719544589,0.024729497730731964,-0.05706894025206566,-9.815239906311035,0.0028941326308995485,-0.0025787902995944023,-0.0032705487683415413,-0.3305213153362274,-0.43028056621551514,0.4526419937610626
1751361561734580704,0.022950956597924232,-0.0661388710141182,-9.815385818481445,0.0012538143200799823,-0.0024719287175685167,-0.0032529165036976337,-0.3441551923751831,-0.42534807324409485,0.4586273729801178
1751361561754508153,0.021710844710469246,-0.04369400069117546,-9.822802543640137,0.0026851044967770576,-0.002565272618085146,-0.0029834171291440725,-0.34089863300323486,-0.4322332739830017,0.4554099440574646
1751361561774543661,0.04104008898139,-0.03852465748786926,-9.81074047088623,0.0025789954233914614,-0.003208424663171172,-0.002346981316804886,-0.33749982714653015,-0.4416751563549042,0.45905008912086487
1751361561789544994,0.024214603006839752,-0.061747048050165176,-9.822394371032715,0.0022484641522169113,-0.0029337189625948668,-0.001599375857040286,-0.33728328347206116,-0.4350895583629608,0.46248728036880493
1751361561809559106,0.038500092923641205,-0.041686899960041046,-9.81550121307373,0.0026595613453537226,-0.003227260895073414,-0.0021712863817811012,-0.35119208693504333,-0.4398874044418335,0.4650321900844574
1751361561837006471,0.036453958600759506,-0.06593580543994904,-9.811896324157715,0.0022908945102244616,-0.0029061047825962305,-0.0022257890086621046,-0.34784504771232605,-0.4316341280937195,0.45497050881385803
1751361561854522834,0.025648079812526703,-0.041815392673015594,-9.818490028381348,0.002543746493756771,-0.002809318248182535,-0.0022615904454141855,-0.33385223150253296,-0.4325381815433502,0.4592798352241516
1751361561874551474,0.038771893829107285,-0.050829172134399414,-9.814535140991211,0.0021540182642638683,-0.0031968525145202875,-0.0020419061183929443,-0.33706673979759216,-0.42850354313850403,0.4659245014190674
1751361561889540374,0.03060152940452099,-0.06560070812702179,-9.809693336486816,0.002389871282503009,-0.0031104162335395813,-0.002232176950201392,-0.3334934115409851,-0.4285088777542114,0.46957463026046753
1751361561919548971,0.0277582798153162,-0.047830816358327866,-9.817928314208984,0.0042136176489293575,-0.003126300172880292,-0.0025442063342779875,-0.3340526819229126,-0.43312692642211914,0.45241889357566833
1751361561937031508,0.019820714369416237,-0.06834886968135834,-9.813358306884766,0.002905776957049966,-0.003306353697553277,-0.0029567338060587645,-0.3268056809902191,-0.4328427016735077,0.4631497859954834
1751361561954510266,0.03448012098670006,-0.040350496768951416,-9.801971435546875,0.0021143893245607615,-0.004048231057822704,-0.0024215138982981443,-0.3233324885368347,-0.4331422448158264,0.46336957812309265
1751361561974545109,0.026962950825691223,-0.0637020543217659,-9.809775352478027,0.0015614618314430118,-0.0044171870686113834,-0.0017467574216425419,-0.32637250423431396,-0.4196714460849762,0.47002413868904114
1751361561989546953,0.020706649869680405,-0.056041985750198364,-9.815862655639648,0.0030669046100229025,-0.003042676020413637,-0.0028192996978759766,-0.3235490322113037,-0.43972787261009216,0.4599323868751526
1751361562009581834,0.02574416808784008,-0.06176804378628731,-9.814067840576172,0.0031319197732955217,-0.0034876095596700907,-0.0018929869402199984,-0.33047929406166077,-0.4331318736076355,0.45606914162635803
1751361562037043435,0.030055934563279152,-0.05996466800570488,-9.811258316040039,0.002087560947984457,-0.004330785945057869,-0.00238768826238811,-0.33022066950798035,-0.42939719557762146,0.4629334509372711
1751361562054494343,0.03212469071149826,-0.05569202080368996,-9.820771217346191,0.003106580814346671,-0.004417784977704287,-0.002504227217286825,-0.3230738341808319,-0.4294075667858124,0.47023385763168335
1751361562074594291,0.03532688692212105,-0.05153876170516014,-9.816929817199707,0.003382615279406309,-0.0031300890259444714,-0.0020544647704809904,-0.3306116461753845,-0.44542020559310913,0.459486186504364
1751361562089544967,0.03335212543606758,-0.053190238773822784,-9.831535339355469,0.0024198240134865046,-0.003464488545432687,-0.0029578679241240025,-0.3233324885368347,-0.4331422448158264,0.46336957812309265
1751361562109482933,0.03015388734638691,-0.06072435900568962,-9.806777000427246,0.002479187212884426,-0.004352310672402382,-0.001994668273255229,-0.33029502630233765,-0.43853959441185,0.4663538932800293
1751361562137026610,0.030241601169109344,-0.06598853319883347,-9.811053276062012,0.00391788175329566,-0.004954329691827297,-0.0022460955660790205,-0.3334934115409851,-0.4285088777542114,0.46957463026046753
1751361562154538365,0.031211035326123238,-0.06385764479637146,-9.823530197143555,0.0027394630014896393,-0.003263031831011176,-0.002153306733816862,-0.3370246887207031,-0.43135523796081543,0.469351589679718
1751361562174557216,0.027077894657850266,-0.05103909224271774,-9.816519737243652,0.002520016860216856,-0.003978019114583731,-0.002443415578454733,-0.32632073760032654,-0.4373670518398285,0.48372596502304077
1751361562194554486,0.034440118819475174,-0.040630001574754715,-9.81087875366211,0.002273126505315304,-0.0034825829789042473,-0.001602836069650948,-0.3266472816467285,-0.4294021725654602,0.4665836691856384
1751361562209549961,0.02483123540878296,-0.049249276518821716,-9.809435844421387,0.002855258295312524,-0.003570038825273514,-0.0015360931865870953,-0.326847642660141,-0.42999133467674255,0.45972269773483276
1751361562229559253,0.023735521361231804,-0.050859253853559494,-9.815779685974121,0.0017574363155290484,-0.0036045920569449663,-0.003035604953765869,-0.34058183431625366,-0.4253530502319336,0.4622775912284851
1751361562249569009,0.02066938579082489,-0.04027764871716499,-9.811751365661621,0.002829483477398753,-0.003265446750447154,-0.0020173550583422184,-0.34427839517593384,-0.43153899908065796,0.4586353302001953
1751361562274587871,0.028751615434885025,-0.05075971782207489,-9.818065643310547,0.0031406842172145844,-0.004078444093465805,-0.0027049146592617035,-0.33372610807418823,-0.441091388463974,0.46956127882003784
1751361562292026992,0.025234995409846306,-0.0551283024251461,-9.818532943725586,0.001723179710097611,-0.0038220721762627363,-0.0020843264646828175,-0.33053749799728394,-0.4362774193286896,0.4560658037662506
1751361562309553858,0.03728466480970383,-0.04766136035323143,-9.812838554382324,0.0010256979148834944,-0.00405019149184227,-0.0027141806203871965,-0.32689690589904785,-0.4270402789115906,0.45631030201911926
1751361562339558698,0.02388370968401432,-0.05350445583462715,-9.820229530334473,0.003272000700235367,-0.004782866686582565,-0.0018868225160986185,-0.326414555311203,-0.4168197214603424,0.4665970206260681
1751361562357028847,0.03662808984518051,-0.0594957061111927,-9.813573837280273,0.0021480268333107233,-0.00340186501853168,-0.0026320593897253275,-0.3201761245727539,-0.4403216242790222,0.4567216634750366
1751361562374556105,0.018146444112062454,-0.041786473244428635,-9.817780494689941,0.0014001422096043825,-0.0015977121656760573,-0.0020864768885076046,-0.3341177701950073,-0.4361719489097595,0.4524304270744324
1751361562394529542,0.035521507263183594,-0.06065630912780762,-9.81748104095459,0.002039577579125762,-0.0043909670785069466,-0.0015701004303991795,-0.33773303031921387,-0.433315634727478,0.4453532099723816
1751361562409568017,0.031176144257187843,-0.047805752605199814,-9.815191268920898,0.002196947345510125,-0.0032640814315527678,-0.0016907919198274612,-0.33391040563583374,-0.4356836974620819,0.4592764973640442
1751361562429558893,0.028734738007187843,-0.057458605617284775,-9.81660270690918,0.0019195842323824763,-0.0032621119171380997,-0.0017940867692232132,-0.333991676568985,-0.44472554326057434,0.4627116024494171
1751361562459481749,0.034685514867305756,-0.05441197380423546,-9.816630363464355,0.003204661188647151,-0.002776389243081212,-0.0025449686218053102,-0.3268871605396271,-0.44188493490219116,0.4665847420692444
1751361562477023799,0.03037038818001747,-0.06316541880369186,-9.822866439819336,0.0022607664577662945,-0.0022615056950598955,-0.0017661532619968057,-0.32029980421066284,-0.44651293754577637,0.4567297101020813
1751361562494555229,0.02828318253159523,-0.04810420423746109,-9.813962936401367,0.0022789426147937775,-0.003933558240532875,-0.0016727432375773787,-0.31998297572135925,-0.43963271379470825,0.46359720826148987
1751361562509509151,0.02457425929605961,-0.03805065155029297,-9.822890281677246,0.0021410423796623945,-0.0031962248031049967,-0.001513131894171238,-0.32643792033195496,-0.4227168560028076,0.47003525495529175
1751361562539537360,0.03039328195154667,-0.05144564434885979,-9.813852310180664,0.0029175097588449717,-0.003937552683055401,-0.0006691564922221005,-0.3198344111442566,-0.42134833335876465,0.4567564129829407
1751361562557008151,0.025485821068286896,-0.0568549670279026,-9.82088565826416,0.0018231100402772427,-0.0038956652861088514,-0.002794514875859022,-0.3234820067882538,-0.4304853677749634,0.45652666687965393
1751361562574548683,0.03272251412272453,-0.047467149794101715,-9.8154935836792,0.0028905963990837336,-0.0028704809956252575,-0.002863238099962473,-0.33054453134536743,-0.4361773133277893,0.45608052611351013
1751361562594523844,0.021486157551407814,-0.05333821102976799,-9.811335563659668,0.0027243555523455143,-0.0038178833201527596,-0.0013451228151097894,-0.3198084533214569,-0.43019574880599976,0.46360719203948975
1751361562614549680,0.029926221817731857,-0.05642791837453842,-9.817081451416016,0.001847921870648861,-0.004475124180316925,-0.000785378273576498,-0.3229227364063263,-0.42586734890937805,0.4736819863319397
1751361562629549858,0.03419305384159088,-0.05453762039542198,-9.813709259033203,0.002470871899276972,-0.004278877750039101,-0.002327473135665059,-0.319724440574646,-0.4358980357646942,0.47046127915382385
1751361562659534893,0.036236099898815155,-0.0547831766307354,-9.815424919128418,0.002292107092216611,-0.0030915746465325356,-0.002033995231613517,-0.32328152656555176,-0.42989620566368103,0.46338748931884766
1751361562677021482,0.03759567439556122,-0.05198944732546806,-9.815689086914062,0.002393110655248165,-0.003431652206927538,-0.002457277849316597,-0.32671260833740234,-0.43244796991348267,0.4665948152542114
1751361562694529499,0.027403712272644043,-0.06415151059627533,-9.828956604003906,0.002444853773340583,-0.00298654125072062,-0.002683590166270733,-0.32665443420410156,-0.429302453994751,0.4665980935096741
1751361562712016151,0.028431057929992676,-0.04639418423175812,-9.815539360046387,0.003662864677608013,-0.003339013084769249,-0.001724472502246499,-0.3334842622280121,-0.42241230607032776,0.46616536378860474
1751361562729541709,0.023451941087841988,-0.06281225383281708,-9.813677787780762,0.0029754696879535913,-0.0034839650616049767,-0.0019480808405205607,-0.33391740918159485,-0.4355831742286682,0.4592912197113037
1751361562759548232,0.02864421345293522,-0.05144493281841278,-9.803010940551758,0.001225264510139823,-0.0036441441625356674,-0.0017138157272711396,-0.3337589502334595,-0.43214306235313416,0.4627249538898468
1751361562774520303,0.03314097225666046,-0.04528035596013069,-9.808924674987793,0.003802837338298559,-0.0046385712921619415,-0.001997125567868352,-0.3371317684650421,-0.4315493404865265,0.465935617685318
1751361562794547794,0.03755601868033409,-0.046393923461437225,-9.812668800354004,0.0031260731630027294,-0.004037349950522184,-0.0013984076213091612,-0.3368731141090393,-0.42781463265419006,0.47279974818229675
1751361562814518037,0.014467457309365273,-0.0555538535118103,-9.81322956085205,0.0032075000926852226,-0.0037747190799564123,-0.002123958198353648,-0.326337605714798,-0.42242226004600525,0.47346559166908264
1751361562832017381,0.030048228800296783,-0.06159316375851631,-9.817770957946777,0.0023544435389339924,-0.004141428042203188,-0.0025102633517235518,-0.3232395350933075,-0.4327475428581238,0.46681448817253113
1751361562859564836,0.03490981087088585,-0.04968355968594551,-9.816606521606445,0.0034520726185292006,-0.004400033503770828,-0.0024554224219173193,-0.33385923504829407,-0.43243762850761414,0.45929452776908875
1751361562869533237,0.035503238439559937,-0.051129572093486786,-9.820816040039062,0.002270546043291688,-0.0030143242329359055,-0.0019847452640533447,-0.3265121579170227,-0.4318588078022003,0.47345560789108276
1751361562894525476,0.030270619317889214,-0.04797091335058212,-9.813909530639648,0.002094700001180172,-0.0029317522421479225,-0.0012218512129038572,-0.3095055818557739,-0.43738582730293274,0.46425968408584595
1751361562914550847,0.03052218072116375,-0.04634549096226692,-9.81573486328125,0.001927661243826151,-0.003285324200987816,-0.002658555982634425,-0.3307027816772461,-0.439617395401001,0.45264682173728943
1751361562929543016,0.026485389098525047,-0.051020462065935135,-9.816437721252441,0.004002064932137728,-0.004526967648416758,-0.0030804481357336044,-0.3371899425983429,-0.4346948564052582,0.46593230962753296
1751361562959544285,0.026974644511938095,-0.0504472441971302,-9.82339096069336,0.0026806697715073824,-0.002571401884779334,-0.002070019021630287,-0.33707359433174133,-0.4284038245677948,0.4659389555454254
1751361562974700226,0.03680988773703575,-0.059871070086956024,-9.809795379638672,0.002209235215559602,-0.003066995646804571,-0.002414494287222624,-0.340705007314682,-0.4315439462661743,0.46228551864624023
1751361562994530081,0.03825698420405388,-0.0418132059276104,-9.822007179260254,0.002573128556832671,-0.0038439789786934853,-0.0010042344219982624,-0.3337589502334595,-0.43214306235313416,0.4627249538898468
1751361563014565250,0.02925630286335945,-0.05563132464885712,-9.815566062927246,0.0031682117842137814,-0.0030647797975689173,-0.0030185170471668243,-0.3341177701950073,-0.4361719489097595,0.4524304270744324
1751361563032018952,0.040130093693733215,-0.051372431218624115,-9.808738708496094,0.0022232907358556986,-0.0037315089721232653,-0.0009186279494315386,-0.33727404475212097,-0.4289925694465637,0.4590781033039093
1751361563059598787,0.04391276836395264,-0.03976079449057579,-9.818592071533203,0.0024958839640021324,-0.002852737670764327,-0.0018227227265015244,-0.32711341977119446,-0.4336254894733429,0.45287320017814636
1751361563079508951,0.033204153180122375,-0.05305051431059837,-9.81335163116455,0.0032007319387048483,-0.003722346853464842,-0.00174576451536268,-0.33733221888542175,-0.4321380853652954,0.45907482504844666
1751361563094574473,0.03420211374759674,-0.04918176308274269,-9.806588172912598,0.0024157490115612745,-0.003269381355494261,-0.0010134633630514145,-0.34423625469207764,-0.4343899190425873,0.46206244826316833
1751361563114571218,0.028703860938549042,-0.046481817960739136,-9.807950973510742,0.003419747343286872,-0.0032608183100819588,-0.00289648468606174,-0.3303861618041992,-0.43273720145225525,0.4595142602920532
1751361563129647032,0.030597155913710594,-0.05238206312060356,-9.816573143005371,0.0029099597595632076,-0.0024353109765797853,-0.0014999702107161283,-0.32700613141059875,-0.4334314465522766,0.4562888741493225
1751361563149567995,0.026070665568113327,-0.05566937103867531,-9.816513061523438,0.0018443927401676774,-0.0037490269169211388,-0.0027656645979732275,-0.33367496728897095,-0.43784573674201965,0.4695791006088257
1751361563177006068,0.017746886238455772,-0.057681553065776825,-9.81651782989502,0.0020331309642642736,-0.003786215092986822,-0.0008342983201146126,-0.32319754362106323,-0.4355984628200531,0.47024160623550415
1751361563194595967,0.02012995257973671,-0.05521005764603615,-9.815117835998535,0.0004829508834518492,-0.0038166241720318794,-0.0018710180884227157,-0.32682186365127563,-0.4388391673564911,0.4665736258029938
1751361563214621146,0.035935815423727036,-0.03717777132987976,-9.811570167541504,0.0039117722772061825,-0.004045382607728243,-0.0021279314532876015,-0.3374324142932892,-0.4324326813220978,0.455644428730011
1751361563234606383,0.03214602172374725,-0.06170026957988739,-9.815861701965332,0.0028136020991951227,-0.0028060495387762785,-0.0020921502728015184,-0.34417808055877686,-0.431244432926178,0.46206581592559814
1751361563259633112,0.03889501094818115,-0.06304518133401871,-9.811083793640137,0.0032197062391787767,-0.0034966166131198406,-0.0030356820207089186,-0.33712494373321533,-0.43164941668510437,0.4659211337566376
1751361563279644961,0.03183455020189285,-0.04355405271053314,-9.804560661315918,0.0019275527447462082,-0.0022078424226492643,-0.0018381980480626225,-0.33350956439971924,-0.43450573086738586,0.4729984700679779
1751361563294619264,0.03791850805282593,-0.05363990366458893,-9.816276550292969,0.0026756394654512405,-0.002133882837370038,-0.0027808425948023796,-0.3265962600708008,-0.4261569380760193,0.4666014611721039
1751361563314532158,0.024515114724636078,-0.05220603942871094,-9.816251754760742,0.0019438822055235505,-0.0017472311155870557,-0.002535662380978465,-0.33730921149253845,-0.42624133825302124,0.4556364119052887
1751361563334557268,0.034828655421733856,-0.05253230035305023,-9.813817977905273,0.0026362426578998566,-0.0033433265052735806,-0.002460665535181761,-0.3407402038574219,-0.42879313230514526,0.45884373784065247
1751361563349545826,0.0052017513662576675,-0.06289603561162949,-9.828652381896973,0.0025170771405100822,-0.00275417254306376,-0.0016425589565187693,-0.34084731340408325,-0.428987592458725,0.45542800426483154
1751361563379548128,0.03981221839785576,-0.04793097823858261,-9.816015243530273,0.0024658534675836563,-0.003301229327917099,-0.0031105023808777332,-0.33390122652053833,-0.4295867085456848,0.4558675289154053
1751361563397017695,0.028377609327435493,-0.04389367997646332,-9.807637214660645,0.0037038454320281744,-0.00348518043756485,-0.00252211419865489,-0.3373253047466278,-0.4322386085987091,0.45906010270118713
1751361563414530456,0.02646808512508869,-0.04991331323981285,-9.824808120727539,0.001737792044878006,-0.0033999341540038586,-0.002074761549010873,-0.34060487151145935,-0.4312497675418854,0.4657159149646759
1751361563434543089,0.030830370262265205,-0.057417772710323334,-9.817097663879395,0.001802812097594142,-0.003275564406067133,-0.0024181087501347065,-0.31975027918815613,-0.4270502030849457,0.46361055970191956
1751361563452015886,0.025824066251516342,-0.05782156065106392,-9.804853439331055,0.002602073596790433,-0.0030607939697802067,-0.002147445920854807,-0.33353549242019653,-0.42565757036209106,0.4661475419998169
1751361563479560465,0.023485280573368073,-0.050607554614543915,-9.815506935119629,0.002384394407272339,-0.002319546416401863,-0.001620447146706283,-0.3233978748321533,-0.4361872673034668,0.4633807837963104
1751361563494556922,0.02715476043522358,-0.06474053114652634,-9.813642501831055,0.0013502908404916525,-0.0036324402317404747,-0.0031835970003157854,-0.33714795112609863,-0.4375461935997009,0.4693593382835388
1751361563514548080,0.033569060266017914,-0.04751487821340561,-9.820889472961426,0.0013381479075178504,-0.002157035516574979,-0.0016689650947228074,-0.33703160285949707,-0.4312547445297241,0.46936604380607605
1751361563534531821,0.03541429713368416,-0.05627649277448654,-9.820262908935547,0.0031947747338563204,-0.004205679055303335,-0.0018146038055419922,-0.33703160285949707,-0.4312547445297241,0.46936604380607605
1751361563552017169,0.032939039170742035,-0.05926917493343353,-9.817276000976562,0.002008738461881876,-0.0023883823305368423,-0.0027527769561856985,-0.3307027816772461,-0.439617395401001,0.45264682173728943
1751361563569485027,0.036338165402412415,-0.049447204917669296,-9.818421363830566,0.0013825297355651855,-0.0032222894951701164,-0.001866356236860156,-0.3234820067882538,-0.4304853677749634,0.45652666687965393
1751361563597008904,0.026856016367673874,-0.05008561164140701,-9.799338340759277,0.0033720151986926794,-0.0030597911681979895,-0.0009868376655504107,-0.31969207525253296,-0.423904687166214,0.463613897562027
1751361563614524164,0.02745625376701355,-0.058819301426410675,-9.830733299255371,0.002532122191041708,-0.002276804530993104,-0.0021542555186897516,-0.3268127739429474,-0.4327421486377716,0.46316438913345337
1751361563634522011,0.029017439112067223,-0.059883963316679,-9.80029296875,0.002635806566104293,-0.0034812961239367723,-0.002199147129431367,-0.33727404475212097,-0.4289925694465637,0.4590781033039093
1751361563654491137,0.029409537091851234,-0.051389843225479126,-9.809246063232422,0.0025920395273715258,-0.003456219332292676,-0.001720565021969378,-0.34040436148643494,-0.430660605430603,0.47257670760154724
1751361563669487499,0.02311686798930168,-0.0613517239689827,-9.821012496948242,0.0012593652354553342,-0.0030500765424221754,-0.0026298118755221367,-0.3198666274547577,-0.43334123492240906,0.4636038541793823
1751361563697042731,0.025607887655496597,-0.06931079179048538,-9.80323314666748,0.0027859725523740053,-0.0042503951117396355,-0.0012677288614213467,-0.3409636616706848,-0.43527862429618835,0.4554213583469391
1751361563714540121,0.03536219894886017,-0.04191530868411064,-9.817404747009277,0.003670413512736559,-0.002866506576538086,-0.0026825275272130966,-0.33365878462791443,-0.4318488836288452,0.4661553204059601
1751361563734506829,0.02195938117802143,-0.05236639454960823,-9.81552505493164,0.002945551648736,-0.0032843651715666056,-0.0027625879738479853,-0.33707359433174133,-0.4284038245677948,0.4659389555454254
1751361563754490496,0.026482947170734406,-0.04737098515033722,-9.81754207611084,0.002123704180121422,-0.002063579158857465,-0.0019160379888489842,-0.33683112263679504,-0.4306659996509552,0.4762268364429474
1751361563769530809,0.03389323502779007,-0.04651835933327675,-9.807574272155762,0.0025673070922493935,-0.0037285140715539455,-0.003313570050522685,-0.33352625370025635,-0.4195609986782074,0.4627383053302765
1751361563799551096,0.03421396762132645,-0.05657268688082695,-9.820826530456543,0.001988349249586463,-0.003542499616742134,-0.001492945128120482,-0.337355375289917,-0.4380352199077606,0.46251311898231506
1751361563816998081,0.039374396204948425,-0.05235719680786133,-9.814586639404297,0.0034908156376332045,-0.004394378513097763,-0.0021754654590040445,-0.3302858769893646,-0.43244263529777527,0.46294471621513367
1751361563834523151,0.02686861716210842,-0.05295860767364502,-9.813546180725098,0.0033717171754688025,-0.003504976164549589,-0.0012088699731975794,-0.32365643978118896,-0.4399223327636719,0.4565165936946869
1751361563854481651,0.023704499006271362,-0.058853112161159515,-9.809103965759277,0.0028898182790726423,-0.0035629093181341887,-0.002092483453452587,-0.337138831615448,-0.43144962191581726,0.4659501314163208
1751361563864534156,0.02783234231173992,-0.04691896215081215,-9.815380096435547,0.0023887241259217262,-0.003761637955904007,-0.0027498153503984213,-0.3300343155860901,-0.4286090135574341,0.4698232412338257
1751361563897041771,0.03377041965723038,-0.05253530293703079,-9.812613487243652,0.0033364833798259497,-0.003752008080482483,-0.0026734177954494953,-0.31989017128944397,-0.43923842906951904,0.4670420289039612
1751361563914512878,0.040018100291490555,-0.04624724015593529,-9.822721481323242,0.002410637214779854,-0.0024538286961615086,-0.001985039794817567,-0.3300343155860901,-0.4286090135574341,0.4698232412338257
1751361563934500734,0.037919238209724426,-0.05698343738913536,-9.814305305480957,0.0035867553669959307,-0.0029574267100542784,-0.003046149853616953,-0.33702245354652405,-0.4251585900783539,0.46595677733421326
1751361563954479853,0.03232375159859657,-0.05463649705052376,-9.816287994384766,0.0029216401744633913,-0.004726543556898832,-0.003135404083877802,-0.3336426019668579,-0.4258520305156708,0.46273159980773926
1751361563969517473,0.025159506127238274,-0.04681137949228287,-9.815780639648438,0.0019706396851688623,-0.00209598196670413,-0.0018392896745353937,-0.33739733695983887,-0.43518388271331787,0.4590861201286316
1751361563989502739,0.015538369305431843,-0.050105635076761246,-9.809847831726074,0.002692169975489378,-0.002923866966739297,-0.0024490337818861008,-0.3401366174221039,-0.4208301901817322,0.4760313630104065
1751361564017026841,0.024402784183621407,-0.04480912536382675,-9.824098587036133,0.0035940157249569893,-0.002589574782177806,-0.0014382743975147605,-0.33739733695983887,-0.43518388271331787,0.4590861201286316
1751361564034501777,0.03499368205666542,-0.06255970150232315,-9.82726764678955,0.0021601575426757336,-0.0029023445677012205,-0.0025945596862584352,-0.3236476182937622,-0.4338257312774658,0.45310768485069275
1751361564054473386,0.03831477463245392,-0.05731933191418648,-9.816591262817383,0.003567167790606618,-0.003989018499851227,-0.001943883253261447,-0.3263028860092163,-0.42517387866973877,0.4769069254398346
1751361564074505071,0.0239570252597332,-0.05403350666165352,-9.821303367614746,0.00206974009051919,-0.003222756553441286,-0.0020365396048873663,-0.33352354168891907,-0.43430593609809875,0.4730271100997925
1751361564099504290,0.03126939386129379,-0.04685273393988609,-9.810163497924805,0.002682130318135023,-0.003814920550212264,-0.001733297249302268,-0.32687821984291077,-0.4357883930206299,0.46317562460899353
1751361564117016101,0.0248749777674675,-0.05681590735912323,-9.807458877563477,0.0028178312350064516,-0.0020749149844050407,-0.0034357437398284674,-0.3272208571434021,-0.4338203966617584,0.44945764541625977
1751361564134522549,0.028042074292898178,-0.0486503541469574,-9.81485652923584,0.0020346904639154673,-0.0035883737727999687,-0.0018240229692310095,-0.3370482921600342,-0.4163111746311188,0.4591062068939209
1751361564154465784,0.027516819536685944,-0.05117166042327881,-9.819743156433105,0.002943524159491062,-0.003249555127695203,-0.002605708548799157,-0.3233307898044586,-0.4269455075263977,0.4599750339984894
1751361564169508295,0.03159651905298233,-0.057397566735744476,-9.825456619262695,0.0029024556279182434,-0.0039069256745278835,-0.002314171986654401,-0.3232467770576477,-0.43264779448509216,0.46682894229888916
1751361564189501780,0.04100613668560982,-0.05071978271007538,-9.82077407836914,0.002443789504468441,-0.004349702503532171,-0.000953966926317662,-0.3299761116504669,-0.4254634976387024,0.4698265790939331
1751361564216998698,0.03504136949777603,-0.04862618446350098,-9.82569694519043,0.002738745417445898,-0.00450787553563714,-0.002264792798087001,-0.3234471380710602,-0.43323656916618347,0.45996832847595215
1751361564234507011,0.03957851603627205,-0.0443333201110363,-9.814362525939941,0.0038315525744110346,-0.004026111681014299,-0.003280721139162779,-0.33039310574531555,-0.432637482881546,0.45952892303466797
1751361564254503735,0.02886524237692356,-0.05021258443593979,-9.817536354064941,0.0036629722453653812,-0.0036253889556974173,-0.0021559891756623983,-0.32702043652534485,-0.4332315921783447,0.4563182294368744
1751361564274525367,0.043297529220581055,-0.055068548768758774,-9.819195747375488,0.002172405133023858,-0.004703619983047247,-0.0023294780403375626,-0.32712069153785706,-0.4335262179374695,0.45288795232772827
1751361564289553294,0.018533697351813316,-0.048917677253484726,-9.815340042114258,0.002308162394911051,-0.003279981901869178,-0.0030012100469321012,-0.33019277453422546,-0.4320487082004547,0.466389536857605
1751361564317083322,0.042723335325717926,-0.050592660903930664,-9.81306266784668,0.0020020015072077513,-0.0031991724390536547,-0.0024112563114613295,-0.34059563279151917,-0.4251536428928375,0.4623067378997803
1751361564334592077,0.03465676307678223,-0.0551895797252655,-9.813469886779785,0.0020780335180461407,-0.0032873430754989386,-0.0014765025116503239,-0.3200323283672333,-0.4366816580295563,0.4601847231388092
1751361564354608138,0.021697845309972763,-0.05027228221297264,-9.812518119812012,0.0030764753464609385,-0.0039824252016842365,-0.0025859971065074205,-0.3233049809932709,-0.43579334020614624,0.4668256342411041
1751361564374611505,0.0356626957654953,-0.0560481995344162,-9.817972183227539,0.0013592622708529234,-0.004315425641834736,-0.002663140883669257,-0.3298759460449219,-0.4251689016819,0.4732568860054016
1751361564389592595,0.024333583191037178,-0.053654562681913376,-9.822000503540039,0.0032296159770339727,-0.003566884435713291,-0.0013899898622184992,-0.3406118154525757,-0.43115007877349854,0.46573036909103394
1751361564409552225,0.03815094381570816,-0.06330512464046478,-9.807374000549316,0.0029060514643788338,-0.0025797896087169647,-0.0025971976574510336,-0.32682004570961,-0.4326428472995758,0.46317893266677856
1751361564437059501,0.03327425569295883,-0.05479733273386955,-9.816558837890625,0.002929230686277151,-0.0033787644933909178,-0.002030794508755207,-0.3236476182937622,-0.4338257312774658,0.45310768485069275
1751361564454615608,0.015774564817547798,-0.05411527305841446,-9.813116073608398,0.0028335254173725843,-0.004881284665316343,-0.002535476116463542,-0.33025094866752625,-0.4351942539215088,0.46638616919517517
1751361564474613976,0.029304614290595055,-0.05932467430830002,-9.819865226745605,0.0028280969709157944,-0.0029816555324941874,-0.001888043014332652,-0.33055147528648376,-0.4360775947570801,0.45609521865844727
1751361564489614436,0.02940995804965496,-0.05231591314077377,-9.817658424377441,0.0026893417816609144,-0.004013418685644865,-0.002654269803315401,-0.3263869285583496,-0.41947242617607117,0.4700529873371124
1751361564519504654,0.03376259282231331,-0.03860309347510338,-9.830050468444824,0.002334432676434517,-0.0031093733850866556,-0.0017378926277160645,-0.3369061350822449,-0.41886794567108154,0.4659634530544281
1751361564537006742,0.03764740377664566,-0.04754127934575081,-9.817233085632324,0.0016564251855015755,-0.0029433683957904577,-0.002225673757493496,-0.3337498605251312,-0.4260469079017639,0.4593158960342407
1751361564554519696,0.0282819215208292,-0.06199145317077637,-9.81674575805664,0.004109203349798918,-0.0035810177214443684,-0.001620830618776381,-0.3267036974430084,-0.4263518154621124,0.4631856381893158
1751361564574517133,0.030468735843896866,-0.04784650355577469,-9.818224906921387,0.0027062008157372475,-0.00355328107252717,-0.0016828018706291914,-0.3302347660064697,-0.4291977882385254,0.4629625380039215
1751361564591994888,0.04048063978552818,-0.050991419702768326,-9.826470375061035,0.0019210823811590672,-0.0025651634205132723,-0.001472269301302731,-0.32656145095825195,-0.4289085865020752,0.4700429439544678
1751361564609518576,0.024803200736641884,-0.057391680777072906,-9.815383911132812,0.0020162544678896666,-0.0030730157159268856,-0.002785168355330825,-0.33396637439727783,-0.43263253569602966,0.4558788239955902
1751361564639521456,0.02770846150815487,-0.057521529495716095,-9.822288513183594,0.0027155932039022446,-0.00273611000739038,-0.0022013771813362837,-0.33390817046165466,-0.4294869899749756,0.45588213205337524
1751361564657015686,0.01583508588373661,-0.06268083304166794,-9.808890342712402,0.003243754617869854,-0.003962593153119087,-0.002047655638307333,-0.3305353820323944,-0.4300811290740967,0.4526715874671936
1751361564674531310,0.03403959423303604,-0.052317459136247635,-9.815696716308594,0.002795403590425849,-0.003488222137093544,-0.0022228476591408253,-0.33745551109313965,-0.43832939863204956,0.45908281207084656
1751361564689551008,0.023160120472311974,-0.06571683287620544,-9.817154884338379,0.002353902207687497,-0.002337411977350712,-0.0012523019686341286,-0.3369803726673126,-0.42800989747047424,0.4693838357925415
1751361564709475279,0.029754851013422012,-0.040571827441453934,-9.816346168518066,0.001884752418845892,-0.0025170594453811646,-0.0015715587651357055,-0.32993412017822266,-0.4283144474029541,0.4732535183429718
1751361564736998478,0.022492092102766037,-0.05912582203745842,-9.807567596435547,0.0035498375073075294,-0.0026756394654512405,-0.002134801121428609,-0.3338080048561096,-0.4291924238204956,0.4593125283718109
1751361564754555704,0.035469964146614075,-0.0453881174325943,-9.811171531677246,0.0031739312689751387,-0.003702513873577118,-0.002197256777435541,-0.31704428791999817,-0.4324568510055542,0.43982914090156555
1751361564774535513,0.0274733267724514,-0.06085745990276337,-9.800996780395508,0.0020750160329043865,-0.0025598499923944473,-0.001413904596120119,-0.330325186252594,-0.4443366229534149,0.4698065221309662
1751361564794534531,0.0291620884090662,-0.056408073753118515,-9.819680213928223,0.0021107362117618322,-0.0036210191901773214,-0.0031333882361650467,-0.340753972530365,-0.42859333753585815,0.45887312293052673
1751361564809529780,0.021252384409308434,-0.04562219977378845,-9.809179306030273,0.002791870152577758,-0.0017557520186528563,-0.002197358990088105,-0.33718082308769226,-0.42859867215156555,0.46252313256263733
1751361564829518640,0.02481447160243988,-0.04910983517765999,-9.806330680847168,0.00266136322170496,-0.003728769486770034,-0.002393866190686822,-0.3334653675556183,-0.4311603903770447,0.4730304777622223
1751361564849537463,0.03455584496259689,-0.04120717942714691,-9.81690502166748,0.0029116321820765734,-0.0037115137092769146,-0.0022382568567991257,-0.3477161228656769,-0.4339906573295593,0.46185731887817383
1751361564874535608,0.03698021546006203,-0.06185928359627724,-9.807165145874023,0.0024623284116387367,-0.0038214614614844322,-0.0020831029396504164,-0.3407701551914215,-0.4345901906490326,0.462296724319458
1751361564889536594,0.03241199627518654,-0.06161677837371826,-9.817269325256348,0.002461077645421028,-0.003689037635922432,-0.0029704621993005276,-0.3302929401397705,-0.4323433041572571,0.4629592299461365
1751361564909522473,0.036074649542570114,-0.050644081085920334,-9.807122230529785,0.002422579564154148,-0.0022858234588056803,-0.002216465538367629,-0.32671985030174255,-0.43234825134277344,0.46660923957824707
1751361564939538121,0.03747735545039177,-0.04400020092725754,-9.821776390075684,0.002632871503010392,-0.004077782854437828,-0.002078523626551032,-0.33039310574531555,-0.432637482881546,0.45952892303466797
1751361564954546749,0.026996558532118797,-0.0464860163629055,-9.813932418823242,0.0018819802207872272,-0.0034072119742631912,-0.0023678059224039316,-0.32640308141708374,-0.42546847462654114,0.4734766185283661
1751361564974526003,0.02614365518093109,-0.05471469461917877,-9.81363582611084,0.001555840251967311,-0.003848907072097063,-0.0028586359694600105,-0.3375137150287628,-0.44147494435310364,0.45907941460609436
1751361564994555022,0.022581160068511963,-0.05678068846464157,-9.805789947509766,0.0014789772685617208,-0.004669019021093845,-0.002230220241472125,-0.33723899722099304,-0.43174421787261963,0.4625197947025299
1751361565009518437,0.03172867000102997,-0.05664994567632675,-9.816231727600098,0.0028952606953680515,-0.0035615134984254837,-0.001953867496922612,-0.34761592745780945,-0.43369612097740173,0.46528762578964233
1751361565029540921,0.03930315002799034,-0.055827729403972626,-9.809203147888184,0.0024525716435164213,-0.0030764457769691944,-0.001849711174145341,-0.34783244132995605,-0.4402816891670227,0.4618506133556366
1751361565049538997,0.02848120406270027,-0.059575892984867096,-9.823183059692383,0.0021599980536848307,-0.003953162115067244,-0.0009233119781129062,-0.34420111775398254,-0.4371415674686432,0.4655039608478546
1751361565074532163,0.012787294574081898,-0.06580204516649246,-9.796426773071289,0.001869988744147122,-0.003546904306858778,-0.0025005186907947063,-0.33046746253967285,-0.44177988171577454,0.4629492163658142
1751361565094540542,0.023389067500829697,-0.04510241746902466,-9.807095527648926,0.0028528643306344748,-0.0038233837112784386,-0.001564639387652278,-0.3340989053249359,-0.44492000341415405,0.4592958092689514
1751361565109554494,0.03148762881755829,-0.039087358862161636,-9.8193359375,0.001982143148779869,-0.0034149903804063797,-0.0014443518593907356,-0.33718082308769226,-0.42859867215156555,0.46252313256263733
1751361565139500634,0.028187716379761696,-0.06075940281152725,-9.829524993896484,0.0019509587436914444,-0.0029943890403956175,-0.0020001507364213467,-0.3236055076122284,-0.43667668104171753,0.45653462409973145
1751361565157028502,0.03026225045323372,-0.05176607146859169,-9.818937301635742,0.0028205476701259613,-0.0042613232508301735,-0.0021772782783955336,-0.3307259976863861,-0.44551414251327515,0.4560851752758026
1751361565174471008,0.020123034715652466,-0.0478183850646019,-9.817115783691406,0.0014288646634668112,-0.002763285767287016,-0.002031662268564105,-0.34078630805015564,-0.440586656332016,0.4657203257083893
1751361565194544241,0.026414453983306885,-0.04717869311571121,-9.815881729125977,0.0025310744531452656,-0.004171484149992466,-0.00231910846196115,-0.33046746253967285,-0.44177988171577454,0.4629492163658142
1751361565212006263,0.028791336342692375,-0.05076973885297775,-9.824246406555176,0.003701237728819251,-0.00436718575656414,-0.0016484952066093683,-0.33020883798599243,-0.43804556131362915,0.4698132276535034
1751361565229522566,0.03703751042485237,-0.04205774515867233,-9.825236320495605,0.003117602551355958,-0.003314085304737091,-0.0023960622493177652,-0.3340827226638794,-0.43892353773117065,0.455872118473053
1751361565259529145,0.037864070385694504,-0.04939370974898338,-9.806694030761719,0.0038956862408667803,-0.0030174548737704754,-0.0025662584230303764,-0.3370644748210907,-0.4223076403141022,0.46252983808517456
1751361565269555725,0.048462189733982086,-0.05669620260596275,-9.807729721069336,0.0033097255509346724,-0.003022141754627228,-0.0026037050411105156,-0.3405374586582184,-0.42200809717178345,0.4623100757598877
1751361565294541927,0.04603159800171852,-0.0722171738743782,-9.815080642700195,0.0036900716368108988,-0.0023037949576973915,-0.0017323784995824099,-0.3265846073627472,-0.4348044991493225,0.47348088026046753
1751361565309535631,0.040296316146850586,-0.06677540391683578,-9.809517860412598,0.0037311017513275146,-0.004160706885159016,-0.0018046764889732003,-0.33000847697257996,-0.4374563992023468,0.47667381167411804
1751361565329537451,0.023184163495898247,-0.05468985065817833,-9.809537887573242,0.0028398139402270317,-0.00360431638546288,-0.0014758382458239794,-0.33723899722099304,-0.43174421787261963,0.4625197947025299
1751361565359535348,0.04590102657675743,-0.060039982199668884,-9.818470001220703,0.0021280478686094284,-0.0035160582046955824,-0.0011184059549123049,-0.3339312970638275,-0.43538331985473633,0.45932045578956604
1751361565374564013,0.02398482710123062,-0.05838591232895851,-9.823323249816895,0.0032275936100631952,-0.0035264710895717144,-0.0019113619346171618,-0.31983932852745056,-0.4359927475452423,0.46705976128578186
1751361565394555655,0.016023198142647743,-0.055741701275110245,-9.80971622467041,0.003541285637766123,-0.0030253371223807335,-0.002555333310738206,-0.3336658477783203,-0.431749165058136,0.4661698341369629
1751361565414537011,0.032481636852025986,-0.044964369386434555,-9.813997268676758,0.004346217028796673,-0.0033917862456291914,-0.0018914162646979094,-0.33047449588775635,-0.44167932868003845,0.462963730096817
1751361565429552465,0.03191142901778221,-0.05244617536664009,-9.821925163269043,0.0023702322505414486,-0.0034099926706403494,-0.002932827454060316,-0.3372458219528198,-0.43164411187171936,0.4625343382358551
1751361565459515589,0.040872521698474884,-0.060623254626989365,-9.827371597290039,0.002248076954856515,-0.004569868091493845,-0.0033983353059738874,-0.33367279171943665,-0.43164947628974915,0.46618425846099854
1751361565469539899,0.036245036870241165,-0.04293550178408623,-9.818889617919922,0.003242801409214735,-0.00207902560941875,-0.0018835669616237283,-0.3267269432544708,-0.4322485327720642,0.4666236937046051
1751361565494546674,0.027111748233437538,-0.04673106223344803,-9.820761680603027,0.0033540683798491955,-0.0026063525583595037,-0.0007828421657904983,-0.3336145877838135,-0.42850396037101746,0.46618765592575073
1751361565514554196,0.025895627215504646,-0.06279066950082779,-9.817400932312012,0.002021197695285082,-0.0028691452462226152,-0.0016371516976505518,-0.3302159309387207,-0.43794503808021545,0.46982765197753906
1751361565529531547,0.025353141129016876,-0.05025888979434967,-9.808899879455566,0.0025714030489325523,-0.002329814713448286,-0.0017974779475480318,-0.32674306631088257,-0.4382445812225342,0.47004735469818115
1751361565559554893,0.03016071394085884,-0.06260854005813599,-9.818039894104004,0.00295509141869843,-0.0032427541445940733,-0.002705718856304884,-0.3340315520763397,-0.43567749857902527,0.4558902382850647
1751361565576964858,0.03149021416902542,-0.062087398022413254,-9.821549415588379,0.0031491077970713377,-0.0029203856829553843,-0.0010376489954069257,-0.3302580714225769,-0.4350941479206085,0.4664006531238556
1751361565594550884,0.024837957695126534,-0.052447374910116196,-9.822296142578125,0.002346823224797845,-0.0023079202510416508,-0.0017088442109525204,-0.333530455827713,-0.43420541286468506,0.47304147481918335
1751361565614551004,0.021197404712438583,-0.057515040040016174,-9.806349754333496,0.002068127039819956,-0.0037303632125258446,-0.0023795783054083586,-0.3270947337150574,-0.4423735737800598,0.4597386121749878
1751361565632016977,0.029577789828181267,-0.04426182433962822,-9.80809211730957,0.00207213731482625,-0.0033237524330615997,-0.0025628888979554176,-0.32372915744781494,-0.4428671896457672,0.45654264092445374
1751361565659560034,0.022616012021899223,-0.06490296125411987,-9.804597854614258,0.001472978969104588,-0.004733801353722811,-0.002634296892210841,-0.3342480957508087,-0.4422631561756134,0.45245325565338135
1751361565679552889,0.027316173538565636,-0.05092170462012291,-9.809876441955566,0.0025169618893414736,-0.002862031338736415,-0.0020952909253537655,-0.33742034435272217,-0.4410802721977234,0.46252432465553284
1751361565694526635,0.041311100125312805,-0.05085550993680954,-9.813117980957031,0.002502757590264082,-0.003727544331923127,-0.002641652012243867,-0.32025620341300964,-0.44316673278808594,0.4567623436450958
1751361565714539165,0.0328446663916111,-0.06094953790307045,-9.819209098815918,0.003066267818212509,-0.003351951250806451,-0.0015433626249432564,-0.32003965973854065,-0.43658149242401123,0.4601993262767792
1751361565732036339,0.03833969682455063,-0.05690259858965874,-9.817084312438965,0.0021375082433223724,-0.002610175171867013,-0.0013431836850941181,-0.33008354902267456,-0.4256579577922821,0.46641066670417786
1751361565749550445,0.025798527523875237,-0.04779423028230667,-9.815605163574219,0.0023721368052065372,-0.003936748020350933,-0.0038857711479067802,-0.3270016014575958,-0.44197890162467957,0.4631834328174591
1751361565777014072,0.03527109697461128,-0.04572724550962448,-9.807517051696777,0.0026391115970909595,-0.0025877722073346376,-0.0021939948201179504,-0.32670095562934875,-0.4410955309867859,0.4734742343425751
1751361565794552283,0.020024536177515984,-0.05168844014406204,-9.808783531188965,0.003238022094592452,-0.00320236524567008,-0.0013268862385302782,-0.3195967674255371,-0.4382549226284027,0.4773472547531128
1751361565814568645,0.02485286071896553,-0.053895048797130585,-9.81246280670166,0.0029148280154913664,-0.0027568477671593428,-0.0024871951900422573,-0.32675912976264954,-0.4442410469055176,0.47347089648246765
1751361565834535554,0.026177771389484406,-0.04718713089823723,-9.82533073425293,0.003524170024320483,-0.0038931998424232006,-0.0015342743135988712,-0.3370615243911743,-0.437051385641098,0.47281843423843384
1751361565859550439,0.02407037280499935,-0.04687916859984398,-9.825105667114258,0.002383686602115631,-0.0032760342583060265,-0.002715286798775196,-0.34394919872283936,-0.43330636620521545,0.4723823070526123
1751361565879533997,0.029727753251791,-0.055750053375959396,-9.807633399963379,0.0029669259674847126,-0.0029879517387598753,-0.003338332287967205,-0.34067678451538086,-0.43419548869132996,0.4657415449619293
1751361565894568979,0.02467077411711216,-0.05841844156384468,-9.823424339294434,0.0019266008166596293,-0.002953652525320649,-0.0024177373852580786,-0.3266105651855469,-0.4259575307369232,0.46663036942481995
1751361565914537874,0.04813286289572716,-0.05614125356078148,-9.81852912902832,0.0017648502252995968,-0.002630943199619651,-0.0020834889728575945,-0.3302417993545532,-0.4290976822376251,0.4629771113395691
1751361565932024600,0.03758290410041809,-0.05679218843579292,-9.81405258178711,0.0031086080707609653,-0.004760063719004393,-0.001798261422663927,-0.3406674563884735,-0.4280989170074463,0.462332546710968
1751361565949545882,0.02456199936568737,-0.04440650716423988,-9.809622764587402,0.0020753848366439342,-0.004058446269482374,-0.0025916479062289,-0.3478296399116516,-0.43408507108688354,0.4584563374519348
1751361565977034115,0.0095866359770298,-0.044337768107652664,-9.816960334777832,0.0027942752931267023,-0.0024953109677881002,-0.002089917426928878,-0.3408932089805603,-0.4407806992530823,0.46230456233024597
1751361565994534106,0.028704950585961342,-0.04986919090151787,-9.820578575134277,0.00297039863653481,-0.0027085470501333475,-0.0012938858708366752,-0.34064149856567383,-0.436946302652359,0.4691828787326813
1751361566014556724,0.04200983792543411,-0.03924207389354706,-9.818577766418457,0.0030359516385942698,-0.0029118547681719065,-0.0020191133953630924,-0.3373110592365265,-0.43468987941741943,0.46254557371139526
1751361566034544133,0.039962273091077805,-0.05107785761356354,-9.810168266296387,0.0019399912562221289,-0.003997869323939085,-0.002042471431195736,-0.326533704996109,-0.43155965209007263,0.4734985828399658
1751361566052007494,0.020229874178767204,-0.0486210398375988,-9.815862655639648,0.0030181172769516706,-0.0031494218856096268,-0.002255446743220091,-0.3302392363548279,-0.4438413679599762,0.47326546907424927
1751361566079560504,0.024294955655932426,-0.04713825508952141,-9.8253755569458,0.0032817628234624863,-0.0033572406973689795,-0.0026666519697755575,-0.3340126574039459,-0.44442519545555115,0.4627552628517151
1751361566094548331,0.04582029581069946,-0.056268755346536636,-9.812883377075195,0.0020712255500257015,-0.0032273689284920692,-0.0008814326720312238,-0.3337799906730652,-0.43184393644332886,0.46276867389678955
1751361566114549892,0.024115264415740967,-0.05384398624300957,-9.809664726257324,0.0020934036001563072,-0.002915091346949339,-0.0023932759650051594,-0.3372107744216919,-0.43439534306526184,0.4659757614135742
1751361566134520727,0.021477920934557915,-0.057796526700258255,-9.815202713012695,0.0021537935826927423,-0.003548188367858529,-0.0022783249150961637,-0.33014875650405884,-0.4287033677101135,0.46642187237739563
1751361566149515864,0.043827123939991,-0.05094439536333084,-9.814282417297363,0.0020573486108332872,-0.004016498103737831,-0.0024798549711704254,-0.33403852581977844,-0.43557819724082947,0.4559049606323242
1751361566169536967,0.04285968467593193,-0.05264473333954811,-9.825750350952148,0.003578193485736847,-0.00389799103140831,-0.0021069138310849667,-0.32689252495765686,-0.435588538646698,0.4632047414779663
1751361566197000876,0.031633567065000534,-0.046234142035245895,-9.817028999328613,0.0036600760649889708,-0.0025233731139451265,-0.0016971820732578635,-0.33022308349609375,-0.4378453195095062,0.46984201669692993
1751361566214545424,0.02706533670425415,-0.06604689359664917,-9.815523147583008,0.0016775595722720027,-0.003308952786028385,-0.002565043279901147,-0.3407256603240967,-0.431244432926178,0.462329238653183
1751361566234502908,0.02904445119202137,-0.05080651864409447,-9.8091459274292,0.0021389187313616276,-0.003499540500342846,-0.001437709666788578,-0.34414032101631165,-0.42779937386512756,0.4621128439903259
1751361566254486753,0.028725577518343925,-0.05336857587099075,-9.813957214355469,0.002398081123828888,-0.003532176138833165,-0.0019102405058220029,-0.33741119503974915,-0.4349840581417084,0.4591154456138611
1751361566279547378,0.02992335520684719,-0.04001005366444588,-9.823184967041016,0.003123792354017496,-0.0035556871443986893,-0.000620046048425138,-0.3271251618862152,-0.4481698274612427,0.46319136023521423
1751361566296998592,0.02217051200568676,-0.05276380106806755,-9.820849418640137,0.0020252997055649757,-0.003285488113760948,-0.0013921466888859868,-0.33046555519104004,-0.4355831742286682,0.45955488085746765
1751361566314532405,0.029832836240530014,-0.0492776557803154,-9.815237998962402,0.0034061865881085396,-0.0032155299559235573,-0.0032062972895801067,-0.33385419845581055,-0.4409855306148529,0.4661887586116791
1751361566334542248,0.04063499718904495,-0.05952782928943634,-9.814654350280762,0.0028735212981700897,-0.003552800277248025,-0.0012915882980450988,-0.33732709288597107,-0.4406859278678894,0.465969055891037
1751361566351995121,0.03020891733467579,-0.052337467670440674,-9.807562828063965,0.0031766064930707216,-0.0032760989852249622,-0.0014623133465647697,-0.3235037624835968,-0.43018579483032227,0.4565708041191101
1751361566369530106,0.025267058983445168,-0.0665782243013382,-9.81541919708252,0.0034947064705193043,-0.004749472253024578,-0.001886339276097715,-0.3269926607608795,-0.43588271737098694,0.45977458357810974
1751361566396990649,0.02644590102136135,-0.055742815136909485,-9.820124626159668,0.0018508856883272529,-0.004293832462280989,-0.0021941952873021364,-0.32709285616874695,-0.4361772835254669,0.4563443958759308
1751361566414547375,0.03260857239365578,-0.05650951340794563,-9.808393478393555,0.0029462072998285294,-0.0033320121001452208,-0.0010601563844829798,-0.333938330411911,-0.4352836608886719,0.45933517813682556
1751361566434536875,0.015311543829739094,-0.060189440846443176,-9.814095497131348,0.0032863272354006767,-0.003627863945439458,-0.001848065759986639,-0.3411264419555664,-0.4324219524860382,0.4486084580421448
1751361566454516072,0.031152384355664253,-0.04770023003220558,-9.8103609085083,0.001339987269602716,-0.0019102368969470263,-0.0015888053458184004,-0.3303072154521942,-0.4321434497833252,0.46298837661743164
1751361566464551140,0.03298820182681084,-0.04128556698560715,-9.81103515625,0.0025330521166324615,-0.0026539673563092947,-0.001964998198673129,-0.3265264332294464,-0.43165940046310425,0.47348424792289734
1751361566496996499,0.02893301658332348,-0.04308971390128136,-9.813165664672852,0.0025683201383799314,-0.0030976496636867523,-0.002697232412174344,-0.3231029510498047,-0.42900824546813965,0.47029149532318115
1751361566514537320,0.02487175725400448,-0.05554729700088501,-9.807888984680176,0.0021939794532954693,-0.0029313541017472744,-0.0023438693024218082,-0.32684326171875,-0.43853917717933655,0.46661704778671265
1751361566534554192,0.03129400685429573,-0.04198063910007477,-9.806116104125977,0.0027623060159385204,-0.0026545915752649307,-0.0019324382301419973,-0.33435532450675964,-0.4424576163291931,0.4490378499031067
1751361566554523336,0.0194214079529047,-0.03414997085928917,-9.81205940246582,0.0028357564006000757,-0.0033157500438392162,-0.0016092333244159818,-0.3270508348941803,-0.4390278160572052,0.45977118611335754
1751361566569521908,0.02746119163930416,-0.05464298278093338,-9.813986778259277,0.0017834380269050598,-0.0026870337314903736,-0.0025860166642814875,-0.3337729275226593,-0.4319436550140381,0.4627540409564972
1751361566589522601,0.021935708820819855,-0.055116746574640274,-9.812084197998047,0.0032010204158723354,-0.002022811211645603,-0.002799673704430461,-0.32689252495765686,-0.435588538646698,0.4632047414779663
1751361566617001385,0.03579834848642349,-0.04650649428367615,-9.81778335571289,0.0018548511434346437,-0.0029734421987086535,-0.002456254791468382,-0.32666873931884766,-0.4291030466556549,0.4666270613670349
1751361566634564003,0.04291178286075592,-0.05477053299546242,-9.818533897399902,0.0016937806503847241,-0.0030388443265110254,-0.002345314947888255,-0.316175639629364,-0.42085927724838257,0.4638659656047821
1751361566654516044,0.03453511744737625,-0.052853185683488846,-9.819668769836426,0.002929555717855692,-0.003196205012500286,-0.002037737751379609,-0.33024904131889343,-0.4289979338645935,0.4629916846752167
1751361566674522851,0.022635024040937424,-0.044332992285490036,-9.815980911254883,0.002681720070540905,-0.003904899815097451,-0.0021868422627449036,-0.3237873315811157,-0.4460127055644989,0.4565393626689911
1751361566699525609,0.04035910591483116,-0.051852524280548096,-9.819917678833008,0.0026451468002051115,-0.003694145707413554,-0.0013076893519610167,-0.3270597755908966,-0.44512438774108887,0.4631800949573517
1751361566717001055,0.017492197453975677,-0.06618519127368927,-9.820399284362793,0.003179878694936633,-0.003631896572187543,-0.0020713764242827892,-0.33373787999153137,-0.4346948564052582,0.4661954641342163
1751361566734524779,0.034100696444511414,-0.051079846918582916,-9.811518669128418,0.002591365482658148,-0.004803665913641453,-0.0007855747826397419,-0.33363771438598633,-0.43440067768096924,0.46962565183639526
1751361566754535712,0.020884215831756592,-0.07016514241695404,-9.816689491271973,0.0011704297503456473,-0.0032457145862281322,-0.001147931907325983,-0.33748552203178406,-0.4441256523132324,0.462535560131073
1751361566779533405,0.04105617105960846,-0.045542456209659576,-9.820784568786621,0.0020329132676124573,-0.0030354242771863937,-0.0021956649143248796,-0.3303814232349396,-0.44128504395484924,0.46640846133232117
1751361566789628165,0.029342910274863243,-0.05858840048313141,-9.813405990600586,0.0038268945645540953,-0.0035358460154384375,-0.0009701297385618091,-0.330458402633667,-0.43568286299705505,0.45954015851020813
1751361566819600444,0.03549031913280487,-0.06274419277906418,-9.819345474243164,0.0033566264901310205,-0.003853962989524007,-0.0019748806953430176,-0.33429011702537537,-0.4394121766090393,0.44902634620666504
1751361566834661282,0.027816208079457283,-0.052530687302351,-9.814749717712402,0.002529305638745427,-0.0034394674003124237,-0.0028944790828973055,-0.3406185507774353,-0.4310503900051117,0.46574482321739197
1751361566854522694,0.03308552876114845,-0.0483880341053009,-9.8092041015625,0.002916946541517973,-0.0032741622999310493,-0.0028637924697250128,-0.35077860951423645,-0.42641666531562805,0.47194960713386536
1751361566874619625,0.03471900150179863,-0.061626024544239044,-9.81087875366211,0.0032841991633176804,-0.0040687997825443745,-0.00249525741674006,-0.327011376619339,-0.42713502049446106,0.452909380197525
1751361566889600381,0.02514459565281868,-0.04841038957238197,-9.814098358154297,0.0017923598643392324,-0.0033133153337985277,-0.0016000905307009816,-0.32003965973854065,-0.43658149242401123,0.4601993262767792
1751361566917059598,0.02810635231435299,-0.04673299565911293,-9.813514709472656,0.0022505633533000946,-0.0036905803717672825,-0.002202847506850958,-0.3202473819255829,-0.4370705485343933,0.4533535838127136
1751361566934650659,0.030092673376202583,-0.055170658975839615,-9.811100959777832,0.0022064156364649534,-0.0034972778521478176,-0.0022428708616644144,-0.34413349628448486,-0.4278990626335144,0.46209824085235596
1751361566954606277,0.035442937165498734,-0.06341895461082458,-9.827864646911621,0.0017536366358399391,-0.004001331981271505,-0.003453777637332678,-0.35430973768234253,-0.42926260828971863,0.47172650694847107
1751361566969684342,0.02108166180551052,-0.04415038973093033,-9.817611694335938,0.0027854538056999445,-0.0038087733555585146,-0.0015531877288594842,-0.3404088616371155,-0.42436501383781433,0.46919625997543335
1751361566989608869,0.03153849393129349,-0.05163701996207237,-9.81506633758545,0.003085056087002158,-0.0035204701125621796,-0.0018751738825812936,-0.3408932089805603,-0.4407806992530823,0.46230456233024597
1751361567019601875,0.03154866024851799,-0.05727892369031906,-9.808565139770508,0.0031568284612149,-0.003198286285623908,-0.0028460125904530287,-0.33047449588775635,-0.44167932868003845,0.462963730096817
1751361567037073455,0.010839051567018032,-0.05088727921247482,-9.826852798461914,0.002751898253336549,-0.0036633964627981186,-0.002014342462643981,-0.33694517612457275,-0.4307607412338257,0.47282513976097107
1751361567054615214,0.026548165827989578,-0.0509713776409626,-9.81794261932373,0.0026785668451339006,-0.003613315522670746,-0.002651805989444256,-0.3440915048122406,-0.43075045943260193,0.4655251204967499
1751361567074582008,0.022945670410990715,-0.05249090865254402,-9.801986694335938,0.003028855426236987,-0.0036718149203807116,-0.0018622727366164327,-0.33380529284477234,-0.4439365565776825,0.46960124373435974
1751361567089617743,0.0366918221116066,-0.03945246711373329,-9.818291664123535,0.0016552149318158627,-0.003281129291281104,-0.0018786104628816247,-0.32695960998535156,-0.4448302090167999,0.4666103422641754
1751361567117088561,0.02788039855659008,-0.04443039000034332,-9.82302188873291,0.0014940300025045872,-0.005443957634270191,-0.003039476228877902,-0.34071868658065796,-0.43134456872940063,0.462314635515213
1751361567134561619,0.0321345180273056,-0.04947636276483536,-9.818632125854492,0.0020542421843856573,-0.0036179772578179836,-0.0032347566448152065,-0.32695066928863525,-0.43873363733291626,0.4632013738155365
1751361567154626696,0.03250376135110855,-0.06434273719787598,-9.810317039489746,0.002188520971685648,-0.002529698424041271,-0.0019454376306384802,-0.33726200461387634,-0.43764057755470276,0.4659578800201416
1751361567174598431,0.028851114213466644,-0.05566307157278061,-9.825912475585938,0.002135494025424123,-0.0038389689289033413,-0.00258681271225214,-0.3233122229576111,-0.4356932044029236,0.46684005856513977
1751361567189605632,0.02291104570031166,-0.06231345236301422,-9.81528091430664,0.00207761419005692,-0.0029876187909394503,-0.001603910350240767,-0.33014875650405884,-0.4287033677101135,0.46642187237739563
1751361567209633164,0.021510496735572815,-0.06385044753551483,-9.813600540161133,0.0022958028130233288,-0.003882221644744277,-0.0017940504476428032,-0.3442145586013794,-0.4369409680366516,0.465533047914505
1751361567237076452,0.04076484218239784,-0.04216713085770607,-9.82553768157959,0.0019311003852635622,-0.002542078262194991,-0.00096750701777637,-0.3478134572505951,-0.42808860540390015,0.4550328254699707
1751361567254598543,0.019269056618213654,-0.043316733092069626,-9.81446647644043,0.0024921942967921495,-0.004287498537451029,-0.0018430821364745498,-0.33040738105773926,-0.43243762850761414,0.4595581889152527
1751361567274651601,0.03613387420773506,-0.055929794907569885,-9.812516212463379,0.0028095366433262825,-0.004479620140045881,-0.0026798464823514223,-0.32679224014282227,-0.43529394268989563,0.4666348695755005
1751361567289611921,0.03722427040338516,-0.04889461025595665,-9.828930854797363,0.0023960601538419724,-0.004547130316495895,-0.0020344473887234926,-0.33741119503974915,-0.4349840581417084,0.4591154456138611
1751361567309627350,0.03500043600797653,-0.05992262065410614,-9.823348045349121,0.002005192218348384,-0.003465737449005246,-0.003419244196265936,-0.33711057901382446,-0.4341011643409729,0.4694059491157532
1751361567337065459,0.023441508412361145,-0.05807800218462944,-9.813711166381836,0.0015638753538951278,-0.003931296523660421,-0.0018343556439504027,-0.33356335759162903,-0.42525869607925415,0.4662054777145386
1751361567354624732,0.02416152134537697,-0.057508327066898346,-9.806501388549805,0.0015908166533336043,-0.0025777847040444613,-0.0014635183615610003,-0.3410261571407318,-0.4321273863315582,0.4520387649536133
1751361567374582142,0.028807546943426132,-0.05979319289326668,-9.81904411315918,0.002267806325107813,-0.00400643702596426,-0.002078784629702568,-0.3339965045452118,-0.43842872977256775,0.459331750869751
1751361567392096887,0.025432445108890533,-0.04114759340882301,-9.818824768066406,0.003125285031273961,-0.002971946494653821,-0.0013607210712507367,-0.32687634229660034,-0.42959168553352356,0.4597812294960022
1751361567409736270,0.027933334931731224,-0.056692708283662796,-9.82129955291748,0.0033789060544222593,-0.002868812531232834,-0.0021800866816192865,-0.33735302090644836,-0.4318385720252991,0.4591187536716461
1751361567439703906,0.03349446505308151,-0.05035090446472168,-9.817111015319824,0.0027163962367922068,-0.002154655521735549,-0.0009232816519215703,-0.33695220947265625,-0.43066102266311646,0.47283947467803955
1751361567449747871,0.035484135150909424,-0.05776575207710266,-9.822211265563965,0.00287347799167037,-0.002758282469585538,-0.0021561230532824993,-0.34045085310935974,-0.4215141236782074,0.4657694697380066
1751361567474744637,0.030271612107753754,-0.05962458997964859,-9.822991371154785,0.0018021386349573731,-0.004868615418672562,-0.0017436548369005322,-0.3269765377044678,-0.42988625168800354,0.456351101398468
1751361567489786841,0.027788924053311348,-0.04283326864242554,-9.812569618225098,0.002174643101170659,-0.003442069748416543,-0.0024054052773863077,-0.3299904465675354,-0.42526406049728394,0.469855397939682
1751361567509726527,0.015233105979859829,-0.041549019515514374,-9.81634521484375,0.0017004086403176188,-0.003637409768998623,-0.0022752888035029173,-0.34437301754951477,-0.4403810501098633,0.46209949254989624
1751361567539758358,0.02792470157146454,-0.054357800632715225,-9.821298599243164,0.002488347701728344,-0.0038018086925148964,-0.002304830588400364,-0.3375857174396515,-0.44441983103752136,0.45910540223121643
1751361567554794899,0.02932145819067955,-0.06258192658424377,-9.806534767150879,0.0031543467193841934,-0.004212938714772463,-0.0031840347219258547,-0.3410843312740326,-0.4352729022502899,0.4520353376865387
1751361567574788644,0.024788161739706993,-0.0635405033826828,-9.80795955657959,0.0014010703889653087,-0.0029069690499454737,-0.0027717973571270704,-0.3412104845046997,-0.42672011256217957,0.44175487756729126
1751361567594780424,0.025932515040040016,-0.04516272246837616,-9.814865112304688,0.0016163790132850409,-0.0033001326955854893,-0.0026879659853875637,-0.34404006600379944,-0.4275047779083252,0.4655430316925049
1751361567609579616,0.03167726472020149,-0.04739708453416824,-9.81867504119873,0.0017962392885237932,-0.0034749952610582113,-0.0020338152535259724,-0.3298642933368683,-0.4338168501853943,0.4801359176635742
1751361567629751329,0.025365082547068596,-0.05938807874917984,-9.807709693908691,0.0021496841218322515,-0.0038483270909637213,-0.0024031319189816713,-0.3299645781517029,-0.4341110289096832,0.4767056703567505
1751361567657202699,0.03055771254003048,-0.054672300815582275,-9.818395614624023,0.0027147268410772085,-0.002812317106872797,-0.0032372463028877974,-0.3303654193878174,-0.4352889955043793,0.4629850387573242
1751361567674754458,0.0348033644258976,-0.050995517522096634,-9.82442855834961,0.002312180818989873,-0.004309262149035931,-0.0027695216704159975,-0.33053988218307495,-0.4447247385978699,0.4629749655723572
1751361567694786765,0.03459680825471878,-0.05100606009364128,-9.804736137390137,0.0036261682398617268,-0.0035388062242418528,-0.003247993066906929,-0.32690855860710144,-0.44158458709716797,0.46662816405296326
1751361567709663879,0.03140833228826523,-0.05820275470614433,-9.81228256225586,0.003535427385941148,-0.004339389503002167,-0.0023498167283833027,-0.3337799906730652,-0.43184393644332886,0.46276867389678955
1751361567739627425,0.024333052337169647,-0.05362167954444885,-9.816609382629395,0.003191712312400341,-0.003687671385705471,-0.0017916104989126325,-0.3446575105190277,-0.43526795506477356,0.44838544726371765
1751361567757197830,0.038479894399642944,-0.051611483097076416,-9.79616641998291,0.002645468572154641,-0.002464975230395794,-0.0021993310656398535,-0.3479459583759308,-0.4403756856918335,0.4584496319293976
1751361567774785818,0.02531275898218155,-0.043662674725055695,-9.818132400512695,0.0015666864346712828,-0.0036745299585163593,-0.002411928726360202,-0.33382198214530945,-0.4289925992488861,0.459341824054718
1751361567794739431,0.02127940207719803,-0.05220123007893562,-9.817108154296875,0.001764763379469514,-0.003852647729218006,-0.0024895155802369118,-0.333663672208786,-0.42555326223373413,0.462775319814682
1751361567812228464,0.025581493973731995,-0.06091046705842018,-9.821210861206055,0.003205263754352927,-0.002671442925930023,-0.0017864833353087306,-0.33373787999153137,-0.4346948564052582,0.4661954641342163
1751361567829757877,0.018002523109316826,-0.04233400151133537,-9.809404373168945,0.002788457553833723,-0.003080153139308095,-0.002107024658471346,-0.3445895314216614,-0.44696587324142456,0.45866262912750244
1751361567859747936,0.03502112627029419,-0.05481487140059471,-9.818079948425293,0.0028422127943485975,-0.00356157124042511,-0.0011241976171731949,-0.33735302090644836,-0.4318385720252991,0.4591187536716461
1751361567869725589,0.04898832365870476,-0.04393327236175537,-9.812250137329102,0.00241157878190279,-0.0029334367718547583,-0.002118006581440568,-0.3163996636867523,-0.4273451864719391,0.4604437053203583
1751361567894666796,0.03757859021425247,-0.05607292056083679,-9.809560775756836,0.0033457395620644093,-0.0035924450494349003,-0.00140956265386194,-0.3408839702606201,-0.4346841275691986,0.458895742893219
1751361567909689195,0.025007406249642372,-0.05610295757651329,-9.814034461975098,0.0024579144082963467,-0.003013319568708539,-0.0019235217478126287,-0.34449905157089233,-0.4318278431892395,0.4518190324306488
1751361567939723012,0.03591226041316986,-0.04676171764731407,-9.816558837890625,0.003518129466101527,-0.0035122905392199755,-0.001919308677315712,-0.3407578468322754,-0.44323694705963135,0.4691762328147888
1751361567957216097,0.03342210873961449,-0.04722331091761589,-9.822331428527832,0.0029360202606767416,-0.004122621845453978,-0.001314620254561305,-0.3303232491016388,-0.43813949823379517,0.46641185879707336
1751361567974765352,0.019824080169200897,-0.05617070570588112,-9.811788558959961,0.0024126735515892506,-0.004162736237049103,-0.002354943659156561,-0.34092599153518677,-0.4318332076072693,0.45546889305114746
1751361567994667040,0.03729258105158806,-0.04513388127088547,-9.808536529541016,0.0015849602641537786,-0.0024869772605597973,-0.0014574420638382435,-0.3408839702606201,-0.4346841275691986,0.458895742893219
1751361568014763804,0.034071050584316254,-0.059560757130384445,-9.823392868041992,0.0030106024350970984,-0.003148727584630251,-0.00302729569375515,-0.32715103030204773,-0.43932241201400757,0.45634108781814575
1751361568029803645,0.02484665997326374,-0.06114841252565384,-9.80671501159668,0.002620074199512601,-0.002920885570347309,-0.0015117872972041368,-0.34441500902175903,-0.43752971291542053,0.4586726427078247
1751361568059803713,0.026468884199857712,-0.05718956142663956,-9.816596984863281,0.0021205453667789698,-0.0023823792580515146,-0.0028189481236040592,-0.3303394317626953,-0.44413596391677856,0.4698353707790375
1751361568069785289,0.02298145554959774,-0.05144263803958893,-9.812454223632812,0.0031017307192087173,-0.004246783908456564,-0.0026021588128060102,-0.3372107744216919,-0.43439534306526184,0.4659757614135742
1751361568094684477,0.03079555369913578,-0.04488286375999451,-9.819625854492188,0.0026233831886202097,-0.004047446418553591,-0.0019846416544169188,-0.33719468116760254,-0.42839887738227844,0.4625522792339325
1751361568112196886,0.03996226564049721,-0.05672305449843407,-9.819466590881348,0.003292917739599943,-0.003936664666980505,-0.001708952826447785,-0.3339965045452118,-0.43842872977256775,0.459331750869751
1751361568129718789,0.02967185154557228,-0.057761285454034805,-9.819531440734863,0.0025166678242385387,-0.003957299515604973,-0.003537988755851984,-0.3305819034576416,-0.44187381863594055,0.4595481753349304
