timestamp,ax,ay,az,wx,wy,wz,mx,my,mz
1750171157050217242,-0.07164964824914932,-0.061830442398786545,-9.809054374694824,0.0041358680464327335,-0.005468160845339298,-0.0024957044515758753,0.18073232471942902,-0.3083338439464569,0.727233350276947
1750171157082555292,-0.06586415320634842,-0.0680258572101593,-9.814334869384766,0.0038648536428809166,-0.005003202706575394,-0.0027139000594615936,0.1950501948595047,-0.29572793841362,0.744914710521698
1750171157137656451,-0.06478995084762573,-0.0669112578034401,-9.807279586791992,0.00462323147803545,-0.005019905976951122,-0.0023268589284271,0.19139057397842407,-0.29051488637924194,0.7312510013580322
1750171157137668397,-0.07336388528347015,-0.06582567095756531,-9.812606811523438,0.004276436287909746,-0.0048487745225429535,-0.002385224448516965,0.19780659675598145,-0.3068111836910248,0.728303074836731
1750171157200183944,-0.070408396422863,-0.06700144708156586,-9.808603286743164,0.0037501968909054995,-0.00463614659383893,-0.0022969685960561037,0.1841665804386139,-0.30284252762794495,0.7240843772888184
1750171157250139555,-0.06846893578767776,-0.06452999264001846,-9.810742378234863,0.00397225096821785,-0.004903760738670826,-0.0022197775542736053,0.1812736988067627,-0.29522705078125,0.7373225092887878
1750171157282661905,-0.06911269575357437,-0.07148720324039459,-9.8082857131958,0.003891905304044485,-0.004717852454632521,-0.0023182881996035576,0.18781962990760803,-0.2994743883609772,0.7310261130332947
1750171157337664823,-0.06909792125225067,-0.06084822118282318,-9.814043998718262,0.004194218665361404,-0.004988363943994045,-0.002088027074933052,0.1848473846912384,-0.2922426760196686,0.7408939003944397
1750171157337679168,-0.07442452758550644,-0.061795394867658615,-9.813512802124023,0.004101541358977556,-0.004892803728580475,-0.0020229341462254524,0.17779423296451569,-0.2953173518180847,0.7337369918823242
1750171157400175291,-0.06652690470218658,-0.06704213470220566,-9.80482006072998,0.0037389076314866543,-0.004907847847789526,-0.002829222707077861,0.181235209107399,-0.29840603470802307,0.7373104691505432
1750171157450189484,-0.0680287554860115,-0.06366673111915588,-9.815330505371094,0.004104034509509802,-0.005221003200858831,-0.0023923367261886597,0.18779730796813965,-0.2967740595340729,0.727658748626709
1750171157482586039,-0.07345666736364365,-0.06662249565124512,-9.813472747802734,0.003897887421771884,-0.004874505568295717,-0.0024565914645791054,0.1854524314403534,-0.28463149070739746,0.7577090859413147
1750171157537711026,-0.07181129604578018,-0.06589622795581818,-9.81063175201416,0.003947121091187,-0.005153199192136526,-0.002145943697541952,0.1743304431438446,-0.28952789306640625,0.72679603099823
1750171157537726411,-0.07042267918586731,-0.0679180696606636,-9.810188293457031,0.004291749559342861,-0.0052305227145552635,-0.0025803358294069767,0.1847265064716339,-0.2898302674293518,0.7341648936271667
1750171157600269031,-0.07615281641483307,-0.06172389164566994,-9.815686225891113,0.003864825004711747,-0.004631490912288427,-0.0021661981008946896,0.17458386719226837,-0.28586670756340027,0.733522891998291
1750171157647647079,-0.07336928695440292,-0.06674568355083466,-9.808341026306152,0.004190451931208372,-0.0051768203265964985,-0.0022678037639707327,0.1809590458869934,-0.299367755651474,0.727216362953186
1750171157685072941,-0.068050317466259,-0.06370170414447784,-9.81060791015625,0.0034348759800195694,-0.0046860030852258205,-0.0020254103001207113,0.18811051547527313,-0.29600387811660767,0.7377352118492126
1750171157737632344,-0.06904926896095276,-0.06588760018348694,-9.815189361572266,0.0041105602867901325,-0.005296753719449043,-0.0024014152586460114,0.19152624905109406,-0.2904168367385864,0.7345950603485107
1750171157737645555,-0.06981121748685837,-0.06458788365125656,-9.812278747558594,0.004367569461464882,-0.004709050990641117,-0.0019379743607714772,0.18128542602062225,-0.28674158453941345,0.7305912375450134
1750171157800241528,-0.07170365750789642,-0.07034507393836975,-9.815337181091309,0.004224089439958334,-0.005163991823792458,-0.0028771699871867895,0.1845075488090515,-0.28770631551742554,0.7240737676620483
1750171157850142369,-0.06556156277656555,-0.06588556617498398,-9.813634872436523,0.003990644589066505,-0.00546263949945569,-0.0025995345786213875,0.19204899668693542,-0.2772139012813568,0.7446935772895813
1750171157882564470,-0.07157903909683228,-0.06596570461988449,-9.806239128112793,0.003910716623067856,-0.0049205063842237,-0.0022224111016839743,0.17450416088104248,-0.286249577999115,0.7301522493362427
1750171157937658709,-0.06510227173566818,-0.06613586097955704,-9.81540298461914,0.003976614214479923,-0.004481914918869734,-0.002512919018045068,0.19127576053142548,-0.3000538945198059,0.7312145829200745
1750171157937670217,-0.06977908313274384,-0.061815425753593445,-9.813788414001465,0.0041145808063447475,-0.0046037472784519196,-0.0024170377291738987,0.1917162537574768,-0.2812584638595581,0.7345961332321167
1750171158000156950,-0.0684087723493576,-0.06259337067604065,-9.80807876586914,0.003975908737629652,-0.004646356217563152,-0.002503702649846673,0.19148805737495422,-0.2935962378978729,0.7345830202102661
1750171158050186870,-0.07045427709817886,-0.06621598452329636,-9.809789657592773,0.004533866886049509,-0.005179256200790405,-0.0022175603080540895,0.18148458003997803,-0.29213908314704895,0.7406615018844604
1750171158082612929,-0.07341719418764114,-0.07185965031385422,-9.806843757629395,0.004161253105849028,-0.004739702679216862,-0.002442715223878622,0.17475758492946625,-0.28258800506591797,0.7368792295455933
1750171158137661981,-0.0687975212931633,-0.0692305788397789,-9.811755180358887,0.004061780404299498,-0.0051758261397480965,-0.002438673749566078,0.1848592609167099,-0.2837563455104828,0.7341626882553101
1750171158137674641,-0.0733405202627182,-0.06396182626485825,-9.806487083435059,0.004068549256771803,-0.005059793125838041,-0.00216631474904716,0.17429186403751373,-0.29270684719085693,0.7267837524414062
1750171158200158804,-0.07056119292974472,-0.06323158740997314,-9.813516616821289,0.00437027495354414,-0.005012323148548603,-0.002424741629511118,0.18795154988765717,-0.29677093029022217,0.730993926525116
1750171158250133117,-0.06854277104139328,-0.07006736099720001,-9.807564735412598,0.004211614839732647,-0.004900327883660793,-0.0024501243606209755,0.18847431242465973,-0.2835676074028015,0.7410929203033447
1750171158280082628,-0.07083837687969208,-0.067990243434906,-9.80653190612793,0.004011337645351887,-0.004760285839438438,-0.0022413197439163923,0.19826573133468628,-0.291481614112854,0.7316457629203796
1750171158337715949,-0.06421206891536713,-0.06658337265253067,-9.807857513427734,0.0038887737318873405,-0.005002640187740326,-0.002337385667487979,0.18130674958229065,-0.29281118512153625,0.733928918838501
1750171158337730136,-0.06907757371664047,-0.06755400449037552,-9.810153007507324,0.004193966742604971,-0.004841746762394905,-0.0024628995452076197,0.19156385958194733,-0.2906067371368408,0.7345775365829468
1750171158400131966,-0.07196792215108871,-0.06453421711921692,-9.811736106872559,0.00402454799041152,-0.004787626676261425,-0.0021339503582566977,0.18823964893817902,-0.2873237729072571,0.7343569397926331
1750171158450189909,-0.06639328598976135,-0.06540179252624512,-9.812268257141113,0.0038253292441368103,-0.005235287360846996,-0.0022599920630455017,0.17462079226970673,-0.2860557734966278,0.7335053086280823
1750171158480039820,-0.07236875593662262,-0.0633455440402031,-9.808953285217285,0.004515587352216244,-0.004641177598387003,-0.0023781852796673775,0.18520696461200714,-0.27719977498054504,0.7408757209777832
1750171158537650088,-0.06690486520528793,-0.0655885711312294,-9.815571784973145,0.0039016851224005222,-0.005061937961727381,-0.0022679415997117758,0.18161045014858246,-0.27748388051986694,0.7339365482330322
1750171158537664345,-0.07276313006877899,-0.06254486739635468,-9.815011978149414,0.004170564468950033,-0.005182633176445961,-0.0024660516064614058,0.1985791176557541,-0.2907118797302246,0.7417230606079102
1750171158600154481,-0.06914661824703217,-0.06639119237661362,-9.80949878692627,0.004326060879975557,-0.004749739076942205,-0.0019750685896724463,0.18482349812984467,-0.292911171913147,0.7374972701072693
1750171158647719040,-0.06980369240045547,-0.06533036381006241,-9.810752868652344,0.0035859919153153896,-0.004811037797480822,-0.002264127368107438,0.198439821600914,-0.28820377588272095,0.7350022196769714
1750171158685153192,-0.07352501153945923,-0.0641099140048027,-9.809694290161133,0.004068286623805761,-0.004874498583376408,-0.002642071573063731,0.16434049606323242,-0.2855590581893921,0.7294890880584717
1750171158737727364,-0.0657285675406456,-0.06573565304279327,-9.809671401977539,0.004269986413419247,-0.0053274910897016525,-0.0025316502433270216,0.1883537620306015,-0.2811548709869385,0.7343634366989136
1750171158737743737,-0.06600535660982132,-0.06926322728395462,-9.808050155639648,0.004237697459757328,-0.004940555430948734,-0.0023717049043625593,0.1779661923646927,-0.29540911316871643,0.7370637655258179
1750171158800155205,-0.0734870508313179,-0.06623225659132004,-9.809183120727539,0.0040848697535693645,-0.005058890674263239,-0.0025968835689127445,0.1810876578092575,-0.2906879782676697,0.7238373160362244
1750171158850207553,-0.06798167526721954,-0.06371466815471649,-9.805187225341797,0.004228863399475813,-0.004938773810863495,-0.0025165497791022062,0.19150307774543762,-0.291085422039032,0.7311978340148926
1750171158882662949,-0.07280733436346054,-0.07124364376068115,-9.81041431427002,0.004172882065176964,-0.004969174508005381,-0.0023465591948479414,0.17776314914226532,-0.2874050438404083,0.7236164808273315
1750171158937665814,-0.06683375686407089,-0.06519640237092972,-9.808591842651367,0.004495438188314438,-0.0052595846354961395,-0.0020808265544474125,0.1954514980316162,-0.28685134649276733,0.7482267022132874
1750171158937680165,-0.07229002565145493,-0.06618206202983856,-9.804693222045898,0.003942382987588644,-0.005082718096673489,-0.0023569101467728615,0.17815600335597992,-0.2862507402896881,0.7370648980140686
1750171159000175785,-0.06933718919754028,-0.0671813115477562,-9.811141967773438,0.004542913753539324,-0.004463212564587593,-0.0018858049297705293,0.1913890689611435,-0.2972547113895416,0.7311912775039673
1750171159050188962,-0.0759848952293396,-0.0648590624332428,-9.813606262207031,0.0038131135515868664,-0.00460349814966321,-0.0023424471728503704,0.18460464477539062,-0.2907872200012207,0.7274055480957031
1750171159082661207,-0.06952725350856781,-0.06782456487417221,-9.808849334716797,0.0037719213869422674,-0.005407615564763546,-0.002083661500364542,0.1914648860692978,-0.2942648231983185,0.7311857342720032
1750171159137699226,-0.07339809834957123,-0.07220973074436188,-9.812705039978027,0.003992404323071241,-0.0045652929693460464,-0.002223104238510132,0.19152192771434784,-0.2911803722381592,0.7311890125274658
1750171159137712289,-0.07040843367576599,-0.06783163547515869,-9.809141159057617,0.0037756050005555153,-0.0050207143649458885,-0.002475476823747158,0.1850956827402115,-0.28934454917907715,0.7442160248756409
1750171159200122329,-0.06762585043907166,-0.06535214185714722,-9.815534591674805,0.004231620579957962,-0.004930592142045498,-0.002125455066561699,0.1778295785188675,-0.29887768626213074,0.7336896657943726
1750171159250218035,-0.0673946887254715,-0.06572282314300537,-9.806220054626465,0.0042205252684652805,-0.004939250182360411,-0.0027647826354950666,0.19202882051467896,-0.2838563621044159,0.7446442246437073
1750171159282611118,-0.06943036615848541,-0.06567750871181488,-9.80600643157959,0.004142945632338524,-0.004474346525967121,-0.002249108161777258,0.18841636180877686,-0.29002174735069275,0.7410604357719421
1750171159337736944,-0.06862863153219223,-0.0690498948097229,-9.813427925109863,0.004008524119853973,-0.004907505586743355,-0.0025102999061346054,0.18827705085277557,-0.2875140905380249,0.7343393564224243
1750171159337750471,-0.06457731872797012,-0.06079898774623871,-9.811250686645508,0.004251892678439617,-0.004496360197663307,-0.0024854610674083233,0.18786828219890594,-0.294548898935318,0.7242462635040283
1750171159400181651,-0.06618130207061768,-0.06807601451873779,-9.809569358825684,0.004110020585358143,-0.004741906188428402,-0.0028138516936451197,0.18151763081550598,-0.28972360491752625,0.7372679710388184
1750171159450228282,-0.07100134342908859,-0.07067594677209854,-9.80571460723877,0.004269834142178297,-0.005071212071925402,-0.0026790397241711617,0.18110884726047516,-0.29675838351249695,0.7271749377250671
1750171159482561353,-0.0696265697479248,-0.06677056103944778,-9.811020851135254,0.004329662304371595,-0.004526698030531406,-0.002825405914336443,0.18782702088356018,-0.29175320267677307,0.720887303352356
1750171159537655802,-0.07219688594341278,-0.05992347002029419,-9.810009002685547,0.004190431907773018,-0.004807954654097557,-0.0024301097728312016,0.19119849801063538,-0.3097844421863556,0.7311604619026184
1750171159537668946,-0.06933882087469101,-0.058834075927734375,-9.8092679977417,0.004222224000841379,-0.004821387585252523,-0.0024857684038579464,0.19467176496982574,-0.3011113107204437,0.7280231714248657
1750171159600063233,-0.0717100203037262,-0.06901104748249054,-9.813318252563477,0.004158564377576113,-0.00513492850586772,-0.0024679494090378284,0.18171681463718414,-0.29512229561805725,0.7473394870758057
1750171159647660123,-0.07764846831560135,-0.06321494281291962,-9.812975883483887,0.0037839612923562527,-0.0048278034664690495,-0.0023390278220176697,0.17802181839942932,-0.2956947684288025,0.7370375990867615
1750171159685084461,-0.06787146627902985,-0.07011333107948303,-9.809858322143555,0.0039888788014650345,-0.004733583889901638,-0.002542514819651842,0.17772716283798218,-0.29656028747558594,0.7269508838653564
1750171159737662872,-0.06842178851366043,-0.0707884281873703,-9.807231903076172,0.00438230624422431,-0.005003033671528101,-0.0022475633304566145,0.1848953813314438,-0.2873155176639557,0.7341154217720032
1750171159737677483,-0.06833572685718536,-0.06903500854969025,-9.809635162353516,0.00395875982940197,-0.0049538882449269295,-0.0024881595745682716,0.1849936693906784,-0.28702715039253235,0.7374776601791382
1750171159800085399,-0.06809066981077194,-0.06719154864549637,-9.815153121948242,0.00397934764623642,-0.004971934482455254,-0.0025573731400072575,0.1814539134502411,-0.2842263877391815,0.7305413484573364
1750171159850210194,-0.07348530739545822,-0.06537631899118423,-9.812469482421875,0.0043321936391294,-0.004977873060852289,-0.0023375852033495903,0.1816118061542511,-0.2868281900882721,0.7372538447380066
1750171159882646226,-0.06905615329742432,-0.06184696406126022,-9.809698104858398,0.004078738857060671,-0.004597433842718601,-0.002337498590350151,0.18849219381809235,-0.28703147172927856,0.7410550117492676
1750171159937676612,-0.06842558085918427,-0.07280157506465912,-9.813186645507812,0.004171943292021751,-0.005279681645333767,-0.0026970980688929558,0.1746969074010849,-0.29241135716438293,0.7368170619010925
1750171159937690102,-0.0693139061331749,-0.06911472231149673,-9.812932014465332,0.004208286292850971,-0.00473996764048934,-0.0026258116122335196,0.18846960365772247,-0.28433072566986084,0.7376874089241028
1750171160000038570,-0.06915351748466492,-0.06591647863388062,-9.805778503417969,0.004401377402245998,-0.004902833607047796,-0.002721640979871154,0.18466059863567352,-0.2910721004009247,0.7273787260055542
1750171160050202289,-0.07085029035806656,-0.06128128990530968,-9.813217163085938,0.004279018845409155,-0.004689224064350128,-0.0022228420712053776,0.1919524073600769,-0.29021596908569336,0.7446205615997314
1750171160082705931,-0.06925299763679504,-0.06734274327754974,-9.812582969665527,0.0037697271909564734,-0.004929340444505215,-0.002508190693333745,0.18817494809627533,-0.2851962447166443,0.7276003956794739
1750171160137686215,-0.06788330525159836,-0.06516940891742706,-9.807734489440918,0.003531836671754718,-0.004892497323453426,-0.0020901793614029884,0.18825730681419373,-0.2907883822917938,0.7343184947967529
1750171160137699793,-0.07290233671665192,-0.06913178414106369,-9.811153411865234,0.0039842138066887856,-0.004758911672979593,-0.0020870892331004143,0.19169896841049194,-0.2938779890537262,0.7378926873207092
1750171160200048131,-0.06665762513875961,-0.07021259516477585,-9.811895370483398,0.004411193076521158,-0.004702937323600054,-0.0025375334080308676,0.18167145550251007,-0.2897200584411621,0.7406041622161865
1750171160250170921,-0.07050160318613052,-0.06748094409704208,-9.816194534301758,0.003867149818688631,-0.004841474816203117,-0.0022569666616618633,0.1851290464401245,-0.2869287133216858,0.7408226132392883
1750171160282548005,-0.06695516407489777,-0.06530916690826416,-9.807999610900879,0.0038050180301070213,-0.004948105197399855,-0.002571944845840335,0.18450802564620972,-0.3004223704338074,0.72735995054245
1750171160337717938,-0.06764447689056396,-0.0746675431728363,-9.808561325073242,0.0041508907452225685,-0.004614685662090778,-0.0021937224082648754,0.18495796620845795,-0.2961828410625458,0.7408127784729004
1750171160337731222,-0.06906258314847946,-0.0639038234949112,-9.812117576599121,0.0036914178635925055,-0.004423628561198711,-0.0022144669201225042,0.1816900223493576,-0.2898145914077759,0.7405955791473389
1750171160400179919,-0.07340896874666214,-0.06348377466201782,-9.808646202087402,0.0037429200019687414,-0.004336425103247166,-0.002470929641276598,0.18475475907325745,-0.288177490234375,0.7273640632629395
1750171160450190107,-0.06918278336524963,-0.06520242989063263,-9.808652877807617,0.00454504182562232,-0.004325068090111017,-0.0024472058285027742,0.1780518740415573,-0.28730258345603943,0.73029625415802
1750171160480102769,-0.06892859935760498,-0.06720846146345139,-9.810519218444824,0.003927559591829777,-0.004929858725517988,-0.0023594123777002096,0.19167646765708923,-0.29117724299430847,0.7345248460769653
1750171160537679189,-0.06670337915420532,-0.06763472408056259,-9.81639289855957,0.0038715421687811613,-0.004627312533557415,-0.0025048847310245037,0.17815007269382477,-0.28701382875442505,0.7336587905883789
1750171160537690957,-0.0736420601606369,-0.07190624624490738,-9.811811447143555,0.003954480402171612,-0.004401692654937506,-0.0025922046042978764,0.19867703318595886,-0.29716259241104126,0.7450271248817444
1750171160600149925,-0.06985964626073837,-0.07005257159471512,-9.810540199279785,0.004127045162022114,-0.004678274970501661,-0.0021413362119346857,0.1984647810459137,-0.30362147092819214,0.741658091545105
1750171160647697876,-0.06723105162382126,-0.06783005595207214,-9.809648513793945,0.003781563136726618,-0.0046882168389856815,-0.0024301311932504177,0.19865186512470245,-0.2884851396083832,0.7383120656013489
1750171160685090501,-0.06907164305448532,-0.06378690153360367,-9.81287956237793,0.00403798371553421,-0.005054781679064035,-0.0021346048451960087,0.19148311018943787,-0.2977306842803955,0.7311469912528992
1750171160737643560,-0.06581107527017593,-0.06977472454309464,-9.810285568237305,0.004020593594759703,-0.004778205417096615,-0.00259331869892776,0.18832005560398102,-0.29965654015541077,0.7410160303115845
1750171160737658013,-0.07108466327190399,-0.06366068869829178,-9.807499885559082,0.0039228112436831,-0.005007088650017977,-0.002202383941039443,0.1984647810459137,-0.30362147092819214,0.741658091545105
1750171160800054580,-0.06912083923816681,-0.0691145807504654,-9.810562133789062,0.0039062323048710823,-0.004018030129373074,-0.0024128996301442385,0.18800954520702362,-0.3064037561416626,0.734284520149231
1750171160850171302,-0.07466833293437958,-0.07309417426586151,-9.813382148742676,0.004452668596059084,-0.004616352263838053,-0.002391758607700467,0.20172591507434845,-0.3014068305492401,0.7351516485214233
1750171160882529162,-0.07029420882463455,-0.06045873835682869,-9.803352355957031,0.00368379894644022,-0.004329946357756853,-0.002252403646707535,0.19155894219875336,-0.2947404086589813,0.7311414480209351
1750171160937658933,-0.07036084681749344,-0.06660164147615433,-9.81405258178711,0.0034870486706495285,-0.0047942111268639565,-0.0022095770109444857,0.19813209772109985,-0.3076675832271576,0.7315585613250732
1750171160937670681,-0.06839270889759064,-0.06588605046272278,-9.813165664672852,0.004434324335306883,-0.00494529539719224,-0.0026347655802965164,0.19820494949817657,-0.29870057106018066,0.7282058596611023
1750171161000117204,-0.07274797558784485,-0.07106715440750122,-9.808914184570312,0.003940851893275976,-0.004259915091097355,-0.0023860076908022165,0.1982302963733673,-0.3073787987232208,0.7349210977554321
1750171161050237690,-0.06956864893436432,-0.06924853473901749,-9.816278457641602,0.004116159398108721,-0.0048373728059232235,-0.002340524224564433,0.19491825997829437,-0.29223740100860596,0.7279973030090332
1750171161082723358,-0.07221518456935883,-0.062170106917619705,-9.810262680053711,0.00434064120054245,-0.00430770218372345,-0.002451877575367689,0.19482304155826569,-0.2985028326511383,0.7279818058013916
1750171161137784060,-0.07359209656715393,-0.06703421473503113,-9.814624786376953,0.004296252969652414,-0.004720363300293684,-0.0023420366924256086,0.19125118851661682,-0.30746471881866455,0.7277568578720093
1750171161137798572,-0.06888924539089203,-0.059628844261169434,-9.813626289367676,0.0038773335982114077,-0.004734723828732967,-0.0022245522122830153,0.20145338773727417,-0.3083448112010956,0.7284022569656372
1750171161200240908,-0.07262182235717773,-0.06928955018520355,-9.813693046569824,0.00421230448409915,-0.005227906629443169,-0.0025975368916988373,0.19140656292438507,-0.304090678691864,0.7311227321624756
1750171161250248324,-0.06976301968097687,-0.06690002232789993,-9.809560775756836,0.0038763945922255516,-0.004979854449629784,-0.0021271260920912027,0.20829607546329498,-0.3117278814315796,0.7321919202804565
1750171161282744404,-0.06948675215244293,-0.06304428726434708,-9.810772895812988,0.004129886627197266,-0.004544859752058983,-0.002592919860035181,0.1917169839143753,-0.2973434329032898,0.737854540348053
1750171161337684797,-0.07068338990211487,-0.06765514612197876,-9.809649467468262,0.00426317285746336,-0.004702367819845676,-0.0025626658461987972,0.18806299567222595,-0.30071237683296204,0.7309108972549438
1750171161337699648,-0.0647398978471756,-0.0676155835390091,-9.813824653625488,0.004178812261670828,-0.004517899826169014,-0.0025776715483516455,0.18803764879703522,-0.2920345366001129,0.7241954803466797
1750171161400284149,-0.06690031290054321,-0.06808329373598099,-9.8176851272583,0.0041688368655741215,-0.004861953668296337,-0.0025009061209857464,0.18507085740566254,-0.2933836579322815,0.7407901287078857
1750171161450184594,-0.0718572661280632,-0.06866118311882019,-9.808924674987793,0.004167571198195219,-0.0050305030308663845,-0.002481095725670457,0.1819808930158615,-0.2863420844078064,0.7473068237304688
1750171161482698772,-0.06921246647834778,-0.0690658912062645,-9.810054779052734,0.004108286928385496,-0.004744779784232378,-0.0023726692888885736,0.19155535101890564,-0.2921338379383087,0.727764368057251
1750171161537616533,-0.06520957499742508,-0.0655263289809227,-9.806628227233887,0.004110757727175951,-0.0052068838849663734,-0.002283021342009306,0.18835096061229706,-0.2912635803222656,0.7342745661735535
1750171161537629507,-0.07307962328195572,-0.06766486167907715,-9.803549766540527,0.004314982797950506,-0.005135897547006607,-0.0024075345136225224,0.1883920580148697,-0.29406043887138367,0.737634003162384
1750171161600174977,-0.06704486161470413,-0.0602351576089859,-9.810346603393555,0.004323198925703764,-0.004757785703986883,-0.0024303034879267216,0.19849629700183868,-0.2952289283275604,0.7349166870117188
1750171161647832016,-0.06909845024347305,-0.06788794696331024,-9.81065845489502,0.0038193995133042336,-0.0051421658135950565,-0.002609175629913807,0.18122290074825287,-0.3033059537410736,0.7304684519767761
1750171161682699328,-0.07353702187538147,-0.06752434372901917,-9.810301780700684,0.004016166087239981,-0.004616033285856247,-0.0025656200014054775,0.17438244819641113,-0.30590033531188965,0.7300259470939636
1750171161737746354,-0.07047829031944275,-0.06467971205711365,-9.808533668518066,0.004053340293467045,-0.004550223238766193,-0.002260674489662051,0.18165014684200287,-0.29636529088020325,0.7405543923377991
1750171161737759567,-0.07056973874568939,-0.06410941481590271,-9.814764022827148,0.003998069558292627,-0.0046338289976119995,-0.0022845834027975798,0.18496866524219513,-0.2910658121109009,0.7340506315231323
1750171161800297880,-0.07162901014089584,-0.06393443048000336,-9.8176908493042,0.00415347795933485,-0.004975282587110996,-0.0027108993381261826,0.1848161816596985,-0.30041614174842834,0.7340319752693176
1750171161850245128,-0.06484910845756531,-0.06264010816812515,-9.80549144744873,0.004158883821219206,-0.0047838143073022366,-0.0021978653967380524,0.18875597417354584,-0.28162097930908203,0.7409924864768982
1750171161882798794,-0.06787338852882385,-0.06175314262509346,-9.810455322265625,0.004265370778739452,-0.004604005254805088,-0.0025871924590319395,0.18188390135765076,-0.29597845673561096,0.7472629547119141
1750171161937690388,-0.07142912596464157,-0.06648973375558853,-9.81177806854248,0.0039400202222168446,-0.004570462740957737,-0.002168507082387805,0.16753484308719635,-0.29991066455841064,0.7228586077690125
1750171161937703082,-0.06754820793867111,-0.0697588101029396,-9.811156272888184,0.0042769997380673885,-0.004326248541474342,-0.002586383605375886,0.1816050410270691,-0.29096221923828125,0.7338178157806396
1750171162000285194,-0.06783577799797058,-0.06536900997161865,-9.810507774353027,0.0037354519590735435,-0.004790075123310089,-0.002529880730435252,0.2019161581993103,-0.29898834228515625,0.7350935339927673
1750171162050258949,-0.07034322619438171,-0.061080265790224075,-9.808237075805664,0.0038912210147827864,-0.004756538663059473,-0.0021544420160353184,0.1748213917016983,-0.29047054052352905,0.7333787083625793
1750171162082737816,-0.07520187646150589,-0.06558198481798172,-9.814661979675293,0.003973433282226324,-0.004806106444448233,-0.002369169844314456,0.1883593648672104,-0.2801682651042938,0.7241635322570801
1750171162137670115,-0.07073552161455154,-0.06899770349264145,-9.81701946258545,0.004061033949255943,-0.004805046133697033,-0.002547553973272443,0.178434818983078,-0.2843039631843567,0.7369634509086609
1750171162137682864,-0.07099036127328873,-0.0678834319114685,-9.8058443069458,0.0038791971746832132,-0.0043376125395298,-0.002391184214502573,0.19567164778709412,-0.2794068157672882,0.7414001822471619
1750171162200220908,-0.0670543760061264,-0.06464177370071411,-9.811384201049805,0.0043097566813230515,-0.004903142340481281,-0.002258553635329008,0.17815850675106049,-0.285265177488327,0.7268654704093933
1750171162250193724,-0.07180449366569519,-0.06675420701503754,-9.810728073120117,0.004274797160178423,-0.004836546257138252,-0.002306291600689292,0.1882227510213852,-0.2836371958255768,0.7207881808280945
1750171162282653075,-0.06625792384147644,-0.06965171545743942,-9.809858322143555,0.003983399830758572,-0.004779083654284477,-0.0026639318093657494,0.18886934220790863,-0.2788201868534088,0.7409698367118835
1750171162337737377,-0.06618612259626389,-0.06703084707260132,-9.811071395874023,0.003975552041083574,-0.004833379294723272,-0.002521279500797391,0.17831653356552124,-0.28786829113960266,0.7335795760154724
1750171162337750660,-0.06680180132389069,-0.06656111031770706,-9.81464672088623,0.0043568979017436504,-0.004621459171175957,-0.0023739347234368324,0.17533992230892181,-0.2746557891368866,0.7401037812232971
1750171162400242255,-0.07364781200885773,-0.06733092665672302,-9.81314754486084,0.004206599202007055,-0.004764737095683813,-0.0024758100043982267,0.17502917349338531,-0.2814038097858429,0.7333709597587585
1750171162450239525,-0.07416709512472153,-0.06724520027637482,-9.81026554107666,0.004387154243886471,-0.004553718026727438,-0.0025838185101747513,0.18836499750614166,-0.2921224534511566,0.7308586835861206
1750171162480251997,-0.06899035722017288,-0.06641027331352234,-9.816727638244629,0.0038714525289833546,-0.004829877987504005,-0.00254253251478076,0.1818159520626068,-0.28787344694137573,0.7371578216552734
1750171162537772300,-0.07128345966339111,-0.06242803484201431,-9.813216209411621,0.003941227216273546,-0.00469508720561862,-0.0023875024635344744,0.17812250554561615,-0.29442286491394043,0.730201005935669
1750171162537784800,-0.0732443630695343,-0.06871248036623001,-9.808838844299316,0.004245399497449398,-0.005053652450442314,-0.002597919199615717,0.1786455512046814,-0.28121477365493774,0.7403036952018738
1750171162600257699,-0.06696463376283646,-0.06685943901538849,-9.811098098754883,0.0038505862466990948,-0.004820484202355146,-0.0026298221200704575,0.19225095212459564,-0.2823880612850189,0.74116450548172
1750171162647815586,-0.07128994166851044,-0.07001480460166931,-9.810470581054688,0.004113134928047657,-0.004684837535023689,-0.002538904547691345,0.1821610927581787,-0.27533695101737976,0.740525484085083
1750171162685250105,-0.06949928402900696,-0.06373172998428345,-9.809915542602539,0.004278149455785751,-0.004983751103281975,-0.0025592355523258448,0.18486829102039337,-0.29809558391571045,0.7306280732154846
1750171162737791361,-0.07099030911922455,-0.06776005774736404,-9.813216209411621,0.004030941985547543,-0.004675694741308689,-0.002567473566159606,0.17836658656597137,-0.27619850635528564,0.7268574833869934
1750171162737805344,-0.0752534419298172,-0.06543347984552383,-9.812158584594727,0.003587118349969387,-0.00461085420101881,-0.0022412175312638283,0.19187389314174652,-0.2776605486869812,0.7243549823760986
1750171162800191684,-0.06831547617912292,-0.0607784241437912,-9.805913925170898,0.004151157569140196,-0.004645527806133032,-0.0024363426491618156,0.18126364052295685,-0.2897951304912567,0.7169607281684875
1750171162850228872,-0.06669372320175171,-0.0645894929766655,-9.807561874389648,0.004228300414979458,-0.004638887010514736,-0.0024778025690466166,0.18877017498016357,-0.2824782431125641,0.7375773787498474
1750171162882708872,-0.06937621533870697,-0.06242017447948456,-9.814449310302734,0.00428701052442193,-0.004666539840400219,-0.002597485901787877,0.19207333028316498,-0.2830605208873749,0.7344292402267456
1750171162937670675,-0.07426508516073227,-0.06840594112873077,-9.81811809539795,0.00412649754434824,-0.004688295070081949,-0.002530558267608285,0.18527324497699738,-0.28845179080963135,0.737346887588501
1750171162937683909,-0.06770401448011398,-0.06606865674257278,-9.809465408325195,0.004044003318995237,-0.00443054037168622,-0.002389716450124979,0.19187989830970764,-0.28961557149887085,0.7310505509376526
1750171163000249504,-0.07279081642627716,-0.06779278814792633,-9.808453559875488,0.003930490929633379,-0.004859216511249542,-0.002588947070762515,0.1887158751487732,-0.2915422022342682,0.7409221529960632
1750171163050239181,-0.0728309154510498,-0.06744798272848129,-9.811158180236816,0.004073089919984341,-0.0051521072164177895,-0.002789614023640752,0.2023220807313919,-0.2927159368991852,0.7417829632759094
1750171163082714530,-0.0662483423948288,-0.06270011514425278,-9.80899715423584,0.004293527454137802,-0.004936707206070423,-0.0025130975991487503,0.18204303085803986,-0.2789008915424347,0.737141489982605
1750171163137684541,-0.07398471981287003,-0.0678011029958725,-9.800649642944336,0.004053906537592411,-0.004518579225987196,-0.0027636808808892965,0.17792193591594696,-0.2923938035964966,0.7200964093208313
1750171163137697370,-0.07191567867994308,-0.06735041737556458,-9.80858039855957,0.004241890273988247,-0.005020639859139919,-0.0025159583892673254,0.18546973168849945,-0.2878742516040802,0.7440735697746277
1750171163200263754,-0.06999238580465317,-0.06588271260261536,-9.817499160766602,0.00396202877163887,-0.004681784193962812,-0.0025741190183907747,0.19892044365406036,-0.2924223840236664,0.7415677905082703
1750171163250236599,-0.0708252564072609,-0.06046094372868538,-9.80314826965332,0.004275715909898281,-0.005142016801983118,-0.0024734565522521734,0.18159551918506622,-0.2891186773777008,0.7270326614379883
1750171163282771041,-0.07005230337381363,-0.06839491426944733,-9.814210891723633,0.003974136896431446,-0.004679918754845858,-0.002422925317659974,0.1923646330833435,-0.2795868515968323,0.7411418557167053
1750171163337685454,-0.07016053795814514,-0.06667343527078629,-9.812809944152832,0.003928025718778372,-0.004547968506813049,-0.002493142383173108,0.18183325231075287,-0.29133886098861694,0.7371196746826172
1750171163337699259,-0.06966275721788406,-0.06431932747364044,-9.805834770202637,0.003942788578569889,-0.004963572137057781,-0.0025356814730912447,0.18853817880153656,-0.2922142744064331,0.7341867089271545
1750171163400263528,-0.06998471915721893,-0.07322178035974503,-9.814903259277344,0.004313421435654163,-0.005055124405771494,-0.0027696441393345594,0.19553786516189575,-0.29222342371940613,0.7413439154624939
1750171163450257958,-0.07413846254348755,-0.060951825231313705,-9.807943344116211,0.004115864168852568,-0.004747889470309019,-0.0020847904961556196,0.18159551918506622,-0.2891186773777008,0.7270326614379883
1750171163482753009,-0.06721249967813492,-0.07021897286176682,-9.80319881439209,0.0037557436153292656,-0.004974601790308952,-0.0023611271753907204,0.19220922887325287,-0.2829616665840149,0.7377751469612122
1750171163537685026,-0.06699933856725693,-0.07181014865636826,-9.816258430480957,0.004161205608397722,-0.004680348560214043,-0.002659472171217203,0.19207270443439484,-0.28643104434013367,0.7343996167182922
1750171163537697454,-0.07132203876972198,-0.06608333438634872,-9.807462692260742,0.004386171232908964,-0.004973241128027439,-0.0021706335246562958,0.18849700689315796,-0.28941696882247925,0.7308264970779419
1750171163600293389,-0.0695398673415184,-0.067706398665905,-9.809944152832031,0.0041672708466649055,-0.005086325574666262,-0.002230690559372306,0.185212180018425,-0.2889300584793091,0.7339659333229065
1750171163647773457,-0.07215962558984756,-0.07540533691644669,-9.814278602600098,0.004108792636543512,-0.004818306304514408,-0.002536287996917963,0.17854835093021393,-0.29085150361061096,0.7402592897415161
1750171163682671105,-0.07716654241085052,-0.0677226185798645,-9.805503845214844,0.003460867563262582,-0.004872221499681473,-0.0024492463562637568,0.18143330514431,-0.2839086055755615,0.7169397473335266
1750171163737649694,-0.06552527844905853,-0.05828165262937546,-9.806662559509277,0.003984886687248945,-0.004499692004173994,-0.0024364942219108343,0.18171225488185883,-0.28892526030540466,0.7303872108459473
1750171163737662861,-0.0688767209649086,-0.07216706871986389,-9.814067840576172,0.0038609120529145002,-0.00494831707328558,-0.002431195229291916,0.18861395120620728,-0.28922316431999207,0.7341811656951904
1750171163800200076,-0.0691993460059166,-0.0679033175110817,-9.80954647064209,0.004074361640959978,-0.004915623925626278,-0.0022836863063275814,0.18837910890579224,-0.29298171401023865,0.7274419665336609
1750171163850239971,-0.06810012459754944,-0.064495749771595,-9.810298919677734,0.004004332702606916,-0.004840018227696419,-0.002392999827861786,0.17903026938438416,-0.2748449146747589,0.7470026612281799
1750171163882755226,-0.06699089705944061,-0.06859330832958221,-9.811633110046387,0.004201696254312992,-0.005180122330784798,-0.0025218299124389887,0.1922309249639511,-0.28903454542160034,0.7411147952079773
1750171163937655033,-0.07486941665410995,-0.06912839412689209,-9.807509422302246,0.004253112245351076,-0.005170220043510199,-0.002144529717043042,0.1781991869211197,-0.300782173871994,0.7335136532783508
1750171163937665554,-0.06696316599845886,-0.07719466835260391,-9.82872200012207,0.0033234180882573128,-0.0048371865414083,-0.0025099439080804586,0.17844325304031372,-0.28255537152290344,0.7301697134971619
1750171164000210287,-0.06912682950496674,-0.06051198020577431,-9.814094543457031,0.0038731833919882774,-0.005178405437618494,-0.0023991381749510765,0.19221507012844086,-0.29491788148880005,0.7444717884063721
1750171164050245587,-0.07263070344924927,-0.05344349145889282,-9.791534423828125,0.0031949894037097692,-0.0052748387679457664,-0.0023804770316928625,0.19199325144290924,-0.28681519627571106,0.7310273051261902
1750171164082671058,-0.06578987836837769,-0.07198715209960938,-9.815982818603516,0.003172521712258458,-0.005120499525219202,-0.00224873423576355,0.20259135961532593,-0.2865407168865204,0.7451272010803223
1750171164137681342,-0.06833737343549728,-0.06844498962163925,-9.815683364868164,0.003712305100634694,-0.00512127997353673,-0.0023506416473537683,0.18855315446853638,-0.28970223665237427,0.7307999134063721
1750171164137693533,-0.07454519718885422,-0.0644240528345108,-9.801176071166992,0.003954773303121328,-0.004836476407945156,-0.002704269252717495,0.18466946482658386,-0.30541613698005676,0.7238410115242004
1750171164200267036,-0.06804072111845016,-0.061725128442049026,-9.81021499633789,0.0038597211241722107,-0.0051633743569254875,-0.002570605371147394,0.18157829344272614,-0.29837334156036377,0.730359673500061
1750171164250234269,-0.07120880484580994,-0.07062113285064697,-9.817506790161133,0.003995665814727545,-0.004901890177279711,-0.0022621345706284046,0.18229788541793823,-0.284586101770401,0.7471910715103149
1750171164282773842,-0.07325632870197296,-0.06880492717027664,-9.80453872680664,0.004298718646168709,-0.004997798707336187,-0.002536142012104392,0.18517662584781647,-0.2980893850326538,0.7373021245002747
1750171164337641873,-0.07068733125925064,-0.06842851638793945,-9.813943862915039,0.003726467490196228,-0.004759618081152439,-0.002520890673622489,0.1887497454881668,-0.2891246974468231,0.7375272512435913
1750171164337652701,-0.06793535500764847,-0.06658260524272919,-9.812541961669922,0.003981934394687414,-0.0046883756294846535,-0.0026118976529687643,0.1816353052854538,-0.29528769850730896,0.7303629517555237
1750171164400239563,-0.07562031596899033,-0.06643316894769669,-9.81603717803955,0.003785443492233753,-0.004921942949295044,-0.002364734187722206,0.18529075384140015,-0.2919176518917084,0.7373086810112
1750171164450242133,-0.07179419696331024,-0.06705193221569061,-9.808575630187988,0.0038171580526977777,-0.005093887448310852,-0.0024426798336207867,0.1921355426311493,-0.295301616191864,0.7410995960235596
1750171164480269539,-0.07118715345859528,-0.06688147038221359,-9.81398868560791,0.004181740805506706,-0.004940786398947239,-0.0023573264479637146,0.18524956703186035,-0.2891203463077545,0.7339483499526978
1750171164537724600,-0.07716833055019379,-0.06466254591941833,-9.806716918945312,0.004055668134242296,-0.005064451135694981,-0.0025622458197176456,0.18855315446853638,-0.28970223665237427,0.7307999134063721
1750171164537739921,-0.06942174583673477,-0.061133526265621185,-9.811921119689941,0.004404051229357719,-0.00498005747795105,-0.0023353134747594595,0.18511010706424713,-0.2866118252277374,0.7272243499755859
1750171164600253150,-0.06701918691396713,-0.06403233855962753,-9.812342643737793,0.003998288884758949,-0.004925481975078583,-0.0026255841366946697,0.18153701722621918,-0.29557642340660095,0.7269992828369141
1750171164647783765,-0.07250948250293732,-0.061411336064338684,-9.81171703338623,0.004115709103643894,-0.004532262682914734,-0.002331587253138423,0.17514242231845856,-0.2879509925842285,0.7366663813591003
1750171164685222966,-0.07008142024278641,-0.07068686187267303,-9.810291290283203,0.003593378234654665,-0.004676743410527706,-0.0026229701470583677,0.1855696737766266,-0.29693472385406494,0.7507568597793579
1750171164737718883,-0.06771589815616608,-0.07038736343383789,-9.81749153137207,0.003900471841916442,-0.004700350109487772,-0.002628555754199624,0.1821199655532837,-0.28525856137275696,0.7404550909996033
1750171164737736891,-0.07063225656747818,-0.06410083174705505,-9.812163352966309,0.0038859026972204447,-0.005095015279948711,-0.002445260062813759,0.1921132206916809,-0.29259923100471497,0.7377304434776306
1750171164800195902,-0.07218464463949203,-0.0645361840724945,-9.810457229614258,0.00435298727825284,-0.004901338368654251,-0.0025938337203115225,0.17527489364147186,-0.28187376260757446,0.7366641759872437
1750171164850270162,-0.07515555620193481,-0.06442870199680328,-9.813410758972168,0.004040707368403673,-0.004800352267920971,-0.002327847294509411,0.1786038726568222,-0.291137158870697,0.7402333617210388
1750171164880154978,-0.07506392896175385,-0.06868638843297958,-9.807162284851074,0.004369367379695177,-0.004737217910587788,-0.0024118763394653797,0.17877502739429474,-0.2818785309791565,0.7402431964874268
1750171164937681695,-0.06791560351848602,-0.06371575593948364,-9.814626693725586,0.004024702589958906,-0.004819544963538647,-0.0026558907702565193,0.17825202643871307,-0.29508867859840393,0.7301388382911682
1750171164937714106,-0.07310078293085098,-0.06317370384931564,-9.81298542022705,0.0038756635040044785,-0.0047514052130281925,-0.002505618380382657,0.18548066914081573,-0.28275397419929504,0.7373098731040955
1750171165000222778,-0.06699245423078537,-0.06211528554558754,-9.810861587524414,0.004553861916065216,-0.0048718140460550785,-0.0024305651895701885,0.17125162482261658,-0.2950794994831085,0.7229809165000916
1750171165050179270,-0.07375182211399078,-0.06876155734062195,-9.811697006225586,0.00419015483930707,-0.00486392667517066,-0.0027287087868899107,0.18185055255889893,-0.29480472207069397,0.7370815277099609
1750171165082799511,-0.06674479693174362,-0.06925088167190552,-9.80980110168457,0.004209891427308321,-0.005136213731020689,-0.0023596277460455894,0.17539837956428528,-0.2902664542198181,0.7467455267906189
1750171165137683127,-0.07177341729402542,-0.06504125893115997,-9.813907623291016,0.003982667811214924,-0.005286237224936485,-0.0026509175077080727,0.18204031884670258,-0.28564226627349854,0.7370826005935669
1750171165137698420,-0.07164892554283142,-0.07012207806110382,-9.813642501831055,0.004094644915312529,-0.004952102433890104,-0.002788553014397621,0.18876837193965912,-0.28922006487846375,0.7375184893608093
1750171165200239225,-0.07149827480316162,-0.06864920258522034,-9.811923027038574,0.0040967222303152084,-0.005092047154903412,-0.002305202651768923,0.1922873854637146,-0.2893194258213043,0.7410888075828552
1750171165250278259,-0.07166334986686707,-0.06253475695848465,-9.810399055480957,0.004028548952192068,-0.00489719258621335,-0.002738307463005185,0.18223680555820465,-0.2850647568702698,0.74381023645401
1750171165282757392,-0.07524615526199341,-0.07202930748462677,-9.818948745727539,0.004420954268425703,-0.004873831290751696,-0.0022925666999071836,0.1886318176984787,-0.29268985986709595,0.7341427206993103
1750171165337766478,-0.06591462343931198,-0.06254136562347412,-9.810479164123535,0.0040275021456182,-0.004906629212200642,-0.0024867430329322815,0.1886318176984787,-0.29268985986709595,0.7341427206993103
1750171165337788500,-0.06752659380435944,-0.06018240004777908,-9.809097290039062,0.004020961467176676,-0.005172645673155785,-0.0027998138684779406,0.1850745677947998,-0.29577112197875977,0.7305604219436646
1750171165400301193,-0.07034197449684143,-0.06919430196285248,-9.811530113220215,0.004010514821857214,-0.005280147772282362,-0.0022683015558868647,0.18855218589305878,-0.29307398200035095,0.7307700514793396
1750171165450241781,-0.06646530330181122,-0.07096535712480545,-9.810906410217285,0.004072231240570545,-0.004900615196675062,-0.002560290275141597,0.19165948033332825,-0.29423338174819946,0.7208936214447021
1750171165482720069,-0.06925180554389954,-0.0686657503247261,-9.810126304626465,0.0039037885144352913,-0.005337338894605637,-0.002370335627347231,0.1849949210882187,-0.29615524411201477,0.7271876931190491
1750171165537793687,-0.06620645523071289,-0.06924983114004135,-9.816058158874512,0.003910417668521404,-0.0048124217428267,-0.0021010010968893766,0.1884380280971527,-0.29924649000167847,0.7307634949684143
1750171165537810515,-0.06243962422013283,-0.06871825456619263,-9.814598083496094,0.004156983457505703,-0.004961433354765177,-0.0022324277088046074,0.1788373440504074,-0.29074952006340027,0.7469437122344971
1750171165600237440,-0.07441836595535278,-0.0629882887005806,-9.809523582458496,0.004244946874678135,-0.005086774006485939,-0.0025776121765375137,0.19547055661678314,-0.28748810291290283,0.7312070727348328
1750171165647723992,-0.0696883276104927,-0.06452994048595428,-9.81205940246582,0.0038389614783227444,-0.005241417326033115,-0.002753960434347391,0.19226497411727905,-0.2866170406341553,0.7377195954322815
1750171165682665674,-0.06940051913261414,-0.05945657193660736,-9.811990737915039,0.0038281225133687258,-0.004916284698992968,-0.002828619908541441,0.19908492267131805,-0.2813207805156708,0.7347927093505859
1750171165737717131,-0.06822925806045532,-0.07016120105981827,-9.811605453491211,0.004273742437362671,-0.004789938684552908,-0.0020817213226109743,0.17172260582447052,-0.2969128489494324,0.7397789359092712
1750171165737733660,-0.0723172053694725,-0.06183254346251488,-9.807440757751465,0.004241093993186951,-0.0050476547330617905,-0.002571775345131755,0.1850932091474533,-0.295866459608078,0.730551540851593
1750171165800173949,-0.06428607553243637,-0.06556155532598495,-9.811016082763672,0.0037297154776751995,-0.004782438278198242,-0.0024604941718280315,0.20944632589817047,-0.2788257598876953,0.7388055920600891
1750171165850221059,-0.06694092601537704,-0.06565871834754944,-9.812751770019531,0.00398948322981596,-0.0048540872521698475,-0.0023315001744776964,0.19219200313091278,-0.29558685421943665,0.7410736680030823
1750171165882686759,-0.07701582461595535,-0.06427188962697983,-9.813913345336914,0.004083473235368729,-0.004770379513502121,-0.0022988351993262768,0.19525812566280365,-0.2939494252204895,0.7278366088867188
1750171165937712758,-0.07170753926038742,-0.06388957798480988,-9.811075210571289,0.0039025270380079746,-0.004984723869711161,-0.002704862505197525,0.18550212681293488,-0.28882765769958496,0.7406497001647949
1750171165937725561,-0.06692153215408325,-0.06406792253255844,-9.806816101074219,0.0037063397467136383,-0.005014840513467789,-0.0022319273557513952,0.19184020161628723,-0.29953962564468384,0.7309787273406982
1750171166000193005,-0.07378820329904556,-0.06918217241764069,-9.806110382080078,0.004065943416208029,-0.005365495570003986,-0.00256155407987535,0.18521006405353546,-0.2956722676753998,0.7339065670967102
1750171166050156324,-0.06789623200893402,-0.06368955969810486,-9.805516242980957,0.004003094043582678,-0.005206473637372255,-0.002247023396193981,0.18521006405353546,-0.2956722676753998,0.7339065670967102
1750171166082749140,-0.07147254794836044,-0.0668761357665062,-9.808548927307129,0.004063215106725693,-0.004949614871293306,-0.0025301906280219555,0.1846044659614563,-0.303288996219635,0.717080295085907
1750171166137703806,-0.07226075977087021,-0.0689532458782196,-9.813774108886719,0.004280548542737961,-0.00459087360650301,-0.002310248324647546,0.1990404576063156,-0.30495041608810425,0.7482134699821472
1750171166137716485,-0.06548775732517242,-0.06391167640686035,-9.810914993286133,0.0040856022387743,-0.004708560183644295,-0.0022230937611311674,0.18197904527187347,-0.2861205041408539,0.7337011694908142
1750171166200269639,-0.07026859372854233,-0.06804633885622025,-9.814167976379395,0.0036020735278725624,-0.005127853713929653,-0.002041798084974289,0.19176065921783447,-0.2999233305454254,0.7276058793067932
1750171166250221344,-0.07158415019512177,-0.06494846194982529,-9.809283256530762,0.0042301020585000515,-0.004971296526491642,-0.0021173530258238316,0.1883997768163681,-0.3024275004863739,0.7307513356208801
1750171166282695594,-0.07305203378200531,-0.07028128206729889,-9.80687141418457,0.004108662251383066,-0.004778503905981779,-0.0020899425726383924,0.19203311204910278,-0.2963547110557556,0.7343282699584961
1750171166337705859,-0.07004667818546295,-0.07396293431520462,-9.813995361328125,0.004046923015266657,-0.004686450585722923,-0.00228483765386045,0.185105100274086,-0.28737568855285645,0.7238155603408813
1750171166337718823,-0.06384678930044174,-0.06385603547096252,-9.810935020446777,0.004082195460796356,-0.00474651250988245,-0.0022822385653853416,0.17877605557441711,-0.29122817516326904,0.7435626983642578
1750171166400201304,-0.07037855684757233,-0.06794822961091995,-9.812722206115723,0.004815118387341499,-0.00515423808246851,-0.002805333584547043,0.17492371797561646,-0.29517611861228943,0.7298880815505981
1750171166450149668,-0.06762610375881195,2.642674684524536,-9.798462867736816,0.011588837020099163,-0.007141130976378918,-0.3187430500984192,0.18503211438655853,-0.2963455021381378,0.7271697521209717
1750171166482685657,-0.8831155300140381,-2.6207692623138428,-9.822759628295898,0.015789024531841278,-0.0044782403856515884,-0.24016991257667542,0.1890586018562317,-0.2891177237033844,0.7442031502723694
1750171166537756214,-1.502785086631775,1.167733907699585,-10.093820571899414,0.02399536408483982,-0.43266957998275757,0.12856599688529968,0.18211455643177032,-0.2860216498374939,0.7370477318763733
1750171166537768229,-0.5010679960250854,0.5465694069862366,-13.447019577026367,0.3662530779838562,-0.33342108130455017,0.9067113995552063,0.19861577451229095,-0.28883785009384155,0.7213125228881836
1750171166600267450,-1.8626668453216553,-0.7619576454162598,-12.597722053527832,0.20634399354457855,0.7331714630126953,0.21259000897407532,0.2229325920343399,-0.2749778628349304,0.7295547723770142
1750171166647724291,-1.0646462440490723,-0.10340993106365204,-12.666898727416992,0.13921570777893066,1.4122612476348877,-0.03630855679512024,0.1927780658006668,-0.2622113823890686,0.7377197742462158
1750171166685187101,-0.03980163484811783,-0.17213766276836395,-12.870986938476562,-0.08707720041275024,1.994347095489502,-0.5131058692932129,0.16965001821517944,-0.25813600420951843,0.7597616910934448
1750171166737772386,0.38793158531188965,0.2518104612827301,-11.845163345336914,-0.17593607306480408,1.6553869247436523,-1.599822759628296,0.10837707668542862,-0.26462072134017944,0.7626023888587952
1750171166737787507,1.0360946655273438,0.07615743577480316,-11.279975891113281,-0.006742667406797409,0.859988272190094,-2.047471046447754,0.060614947229623795,-0.2725692689418793,0.7629399299621582
1750171166800203967,1.6684608459472656,0.7521200180053711,-11.478036880493164,0.44548970460891724,0.40488681197166443,-1.7534314393997192,0.047373682260513306,-0.2615581154823303,0.7688170075416565
1750171166850221451,2.9051907062530518,0.2710474729537964,-10.867452621459961,0.19900324940681458,1.1239471435546875,-1.6431646347045898,0.061448849737644196,-0.25260746479034424,0.7797800898551941
1750171166880164280,4.089260101318359,0.19669464230537415,-9.780189514160156,-0.09399151802062988,1.487652063369751,-2.035351276397705,0.05866796523332596,-0.23881301283836365,0.7930343747138977
1750171166937760961,5.713195323944092,0.8496784567832947,-8.62656307220459,0.025118106976151466,1.189842700958252,-1.7014288902282715,0.031097887083888054,-0.2404177039861679,0.7812168002128601
1750171166937773676,6.4772844314575195,2.1282103061676025,-6.977924346923828,-0.538680374622345,0.30021411180496216,-1.8981623649597168,0.02513657510280609,-0.23443445563316345,0.8077024221420288
1750171167000177648,6.4412736892700195,2.149798631668091,-6.468405246734619,1.0180346965789795,-0.38329586386680603,-0.0824379175901413,0.0005437597865238786,-0.2492557018995285,0.7893588542938232
1750171167050230807,5.813251495361328,-1.480639100074768,-6.46577262878418,2.4136757850646973,-1.023151159286499,0.31195762753486633,0.01788177713751793,-0.23808884620666504,0.7938122749328613
1750171167082676023,4.732968330383301,-0.46550101041793823,-7.150592803955078,1.6100072860717773,-1.0666700601577759,-0.5734714269638062,0.039798419922590256,-0.18873576819896698,0.8153408765792847
1750171167137732352,3.3362514972686768,-1.5006628036499023,-6.807284355163574,2.4315261840820312,-1.1843863725662231,0.2330765724182129,0.08278821408748627,-0.0954253226518631,0.8314818143844604
1750171167137746073,3.1314735412597656,-2.613543748855591,-8.276311874389648,3.558025360107422,-0.7742194533348083,-0.13882823288440704,0.11763554811477661,-0.06383222341537476,0.8403986096382141
1750171167200285081,2.3704652786254883,-1.2538763284683228,-6.00595760345459,4.414562225341797,-0.4242500066757202,0.46944135427474976,0.1567382514476776,0.0487782247364521,0.8260704278945923
1750171167250179535,1.2369492053985596,-4.487063884735107,-5.725295066833496,5.84925651550293,-0.18433929979801178,1.6848783493041992,0.1588566154241562,0.18342375755310059,0.8127583861351013
1750171167282721779,0.9576327800750732,-6.2941694259643555,-7.975396633148193,4.902303695678711,0.21609854698181152,1.3238838911056519,0.20197056233882904,0.35882189869880676,0.7785297632217407
1750171167337688626,-0.4515407085418701,-7.60713005065918,-5.881157875061035,4.826237201690674,1.9141955375671387,0.7290525436401367,0.23217956721782684,0.4746374189853668,0.686406672000885
1750171167337699314,-0.1173570528626442,-8.244697570800781,-2.7732386589050293,3.5442147254943848,1.7505398988723755,1.156680703163147,0.208009272813797,0.5982346534729004,0.5908428430557251
1750171167400181491,0.1768847405910492,-9.933838844299316,-2.1808109283447266,1.6278190612792969,1.1140092611312866,-0.18247318267822266,0.20369762182235718,0.6950913667678833,0.4931802451610565
1750171167450182696,-0.425913006067276,-6.231297016143799,1.028885006904602,1.9811307191848755,0.036956787109375,0.8332335948944092,0.19307217001914978,0.7325563430786133,0.4521929621696472
1750171167482812533,-0.4453235864639282,-9.512075424194336,-0.7811185717582703,2.1494832038879395,-0.6062763929367065,-0.055779848247766495,0.1719353199005127,0.7555440664291382,0.4105575680732727
1750171167537817157,1.6054824590682983,-9.130759239196777,-0.5601646304130554,4.2646284103393555,-0.20133745670318604,-0.21197718381881714,0.20105411112308502,0.7922688126564026,0.3318038880825043
1750171167537829904,1.781764030456543,-11.089744567871094,2.1950759887695312,3.2089030742645264,-1.2659368515014648,-1.1705613136291504,0.20909622311592102,0.8200521469116211,0.2349279522895813
1750171167600299625,1.1296970844268799,-12.236199378967285,2.952012300491333,5.23028564453125,-1.308653473854065,-3.990680456161499,0.19276371598243713,0.8599258661270142,0.10964493453502655
1750171167647756978,1.354112982749939,-9.139164924621582,2.750622272491455,5.5504150390625,-0.18287552893161774,-2.0474143028259277,0.10376401245594025,0.87027907371521,-0.04037933796644211
1750171167682736188,1.876656413078308,-9.358438491821289,6.472117900848389,5.663888454437256,1.0345309972763062,-0.9784229397773743,-0.024478169158101082,0.8610111474990845,-0.24325378239154816
1750171167737803384,2.5298404693603516,-5.282230854034424,6.997198581695557,6.093904495239258,0.41501110792160034,-1.0830532312393188,-0.05958494916558266,0.7584592700004578,-0.4603748619556427
1750171167737816204,3.7158467769622803,0.8760499358177185,6.78249454498291,4.666932106018066,0.06640288233757019,0.05471992865204811,-0.07014310359954834,0.6180609464645386,-0.6255691647529602
1750171167800281225,4.9462714195251465,2.086275100708008,5.244355201721191,2.610767126083374,0.6466872692108154,-0.4039676785469055,-0.07555846124887466,0.4852845370769501,-0.7333950996398926
1750171167850247231,4.190718650817871,1.2461106777191162,9.447836875915527,0.8476108908653259,1.245659589767456,-0.2832334339618683,-0.07518072426319122,0.41189026832580566,-0.7938084602355957
1750171167882720971,3.4544291496276855,1.4218367338180542,9.892158508300781,3.4286530017852783,0.9924846887588501,0.0641840249300003,-0.04193955287337303,0.3716290593147278,-0.7950596809387207
1750171167937687808,3.046971321105957,1.2396469116210938,9.171963691711426,3.0076990127563477,1.6683084964752197,-0.377568781375885,-0.0037071986589580774,0.2729130685329437,-0.8228532671928406
1750171167937698372,1.3359237909317017,-0.25071775913238525,6.8549323081970215,3.832280397415161,1.7925621271133423,-0.13314467668533325,0.04053729772567749,0.1508495956659317,-0.8636962175369263
1750171168000157079,2.3896894454956055,7.498162746429443,11.19929313659668,5.893105506896973,2.101421356201172,-0.13500574231147766,0.10653866082429886,0.04834386706352234,-0.8696296811103821
1750171168050224501,2.412977695465088,5.474043846130371,6.883347034454346,3.3676395416259766,0.9617120623588562,0.4024563431739807,0.17156672477722168,-0.15613184869289398,-0.8419874906539917
1750171168082660945,-0.03756403550505638,3.6964926719665527,6.636516571044922,4.993188381195068,1.5430248975753784,-1.4490818977355957,0.20091423392295837,-0.28803062438964844,-0.7998194098472595
1750171168137729292,-2.20648455619812,10.65343952178955,5.8214802742004395,6.839946269989014,1.7497498989105225,-0.4485319256782532,0.2481495589017868,-0.404231995344162,-0.7363725304603577
1750171168137741315,0.05307410657405853,6.862429618835449,2.8681323528289795,7.848462104797363,0.9987004399299622,-0.2492111325263977,0.32462427020072937,-0.5693880319595337,-0.5669686794281006
1750171168200241343,-3.0565361976623535,11.355897903442383,-3.9229509830474854,7.026662349700928,1.0339456796646118,-0.5299842953681946,0.35155776143074036,-0.7259142398834229,-0.35036155581474304
1750171168250234304,-2.3045034408569336,8.171466827392578,-6.1366143226623535,5.4694366455078125,2.133925199508667,-1.1852775812149048,0.367405503988266,-0.7686030864715576,-0.117637999355793
1750171168282795390,-0.8501418828964233,5.752758026123047,-2.713409662246704,4.238240718841553,0.45020198822021484,-0.953829288482666,0.40105584263801575,-0.7549794316291809,0.10613097250461578
1750171168337749498,-2.084322929382324,13.563615798950195,-7.000183582305908,3.4618608951568604,-0.20127341151237488,1.4903210401535034,0.41269928216934204,-0.7150811553001404,0.2546245753765106
1750171168337762429,-0.790074348449707,5.370662689208984,-7.035269260406494,4.430323600769043,1.4130644798278809,1.5608317852020264,0.4055289328098297,-0.690682590007782,0.348198264837265
1750171168400244992,-0.553547203540802,4.631470203399658,-7.254857540130615,3.732106924057007,0.8285497426986694,1.5071107149124146,0.34106290340423584,-0.6567625999450684,0.45493772625923157
1750171168450335210,1.6879644393920898,2.598376989364624,-9.438579559326172,4.563149929046631,1.195155143737793,0.42899078130722046,0.28155943751335144,-0.5689316987991333,0.5821346640586853
1750171168480274549,1.5346226692199707,2.1227669715881348,-9.873672485351562,4.87047004699707,1.6472063064575195,-0.8874877691268921,0.2481226623058319,-0.4955967664718628,0.6773998737335205
1750171168537690901,1.7948166131973267,-0.080459363758564,-9.49449634552002,6.480841636657715,2.980297088623047,-1.806532621383667,0.21665222942829132,-0.3259977698326111,0.7794955968856812
1750171168537707771,3.4596095085144043,-1.8816826343536377,-8.659936904907227,5.375665187835693,2.603705883026123,-1.0894474983215332,0.14372603595256805,-0.13136085867881775,0.8420259952545166
1750171168600278574,2.7670950889587402,-3.366060733795166,-7.540561199188232,-0.45863205194473267,-0.48235419392585754,0.27761006355285645,0.05642545595765114,0.08847633004188538,0.8599876761436462
1750171168647769443,4.343463897705078,-2.899536371231079,-9.402276039123535,-0.24267669022083282,-1.4197205305099487,0.44587939977645874,0.023093925788998604,0.11388436704874039,0.8679512143135071
1750171168685153749,2.6672921180725098,-2.897792339324951,-10.007791519165039,0.1932452917098999,-1.4277496337890625,1.3228012323379517,0.08048787713050842,0.10465261340141296,0.8581498265266418
1750171168737805838,2.195819854736328,-3.1399319171905518,-8.122150421142578,0.5650491714477539,-0.6883283257484436,1.1384094953536987,0.14151281118392944,0.10747518390417099,0.8485769033432007
1750171168737825495,2.5070111751556396,-2.9490909576416016,-9.038742065429688,-0.6649745106697083,-0.895468533039093,1.3744173049926758,0.15875615179538727,0.1123821809887886,0.853018045425415
1750171168800291831,0.6278822422027588,-3.011439561843872,-9.020814895629883,0.06316815316677094,-0.2963849902153015,0.9844564199447632,0.20608286559581757,0.10152214020490646,0.8492962718009949
1750171168850189123,0.46775031089782715,-3.483288526535034,-9.172347068786621,0.17712938785552979,-1.020689845085144,0.9990404844284058,0.22560785710811615,0.07671044021844864,0.8337425589561462
1750171168880241076,-0.11316213756799698,-3.9040849208831787,-10.022238731384277,0.8540356159210205,-0.9255874156951904,0.4847855865955353,0.23207072913646698,0.057603273540735245,0.834153413772583
1750171168937763353,0.28182321786880493,-4.1032023429870605,-10.467679977416992,-0.10674917697906494,0.16130954027175903,-0.006891659460961819,0.29026514291763306,0.0915856659412384,0.8243978023529053
1750171168937780836,-0.34713536500930786,-4.8904948234558105,-10.241860389709473,-2.2671539783477783,0.8604595065116882,-0.43248140811920166,0.2966362237930298,0.09264162927865982,0.8080092072486877
1750171169000251501,0.03544816002249718,-2.816270112991333,-7.321324348449707,-0.7035348415374756,0.3571788966655731,-0.44652485847473145,0.25873228907585144,0.03886754438281059,0.8257589936256409
1750171169050271029,1.58933687210083,-1.6096570491790771,-11.814251899719238,-0.22623685002326965,0.9416639804840088,0.15994906425476074,0.2544163167476654,-0.010226828046143055,0.8254912495613098
1750171169082694900,1.2866542339324951,-4.331963539123535,-10.859845161437988,-2.9115471839904785,2.7395498752593994,-0.38281747698783875,0.23100584745407104,-0.0011325980303809047,0.8340845108032227
1750171169137738311,2.122288703918457,-1.0096529722213745,-10.507859230041504,-4.293853759765625,3.887725353240967,0.9687176942825317,0.15221606194972992,-0.06306680291891098,0.8559740781784058
1750171169137748911,2.8979365825653076,-0.026400357484817505,-10.602293968200684,-2.430053472518921,5.49981164932251,1.2557854652404785,0.02987225353717804,-0.2082870900630951,0.8348172307014465
1750171169200223787,7.5689263343811035,-0.4755960702896118,-7.475131511688232,-1.3954787254333496,4.823816299438477,0.2632034718990326,-0.15717735886573792,-0.29554447531700134,0.7726192474365234
1750171169250162190,9.397321701049805,2.8669321537017822,-9.051338195800781,-0.6037740111351013,2.8095173835754395,-0.0763280987739563,-0.3368692100048065,-0.34393566846847534,0.7041558623313904
1750171169282712744,9.881406784057617,0.9131022691726685,-7.359244346618652,0.43635955452919006,3.3570022583007812,0.921567440032959,-0.420337975025177,-0.35385817289352417,0.645142138004303
1750171169337798018,11.252368927001953,0.6011400818824768,-5.96325159072876,-0.8499285578727722,4.197429656982422,-0.40479499101638794,-0.5035374164581299,-0.354232519865036,0.5895028710365295
1750171169337810131,8.021291732788086,2.710374593734741,-2.525477409362793,-0.47260162234306335,4.065948486328125,-0.9280295968055725,-0.5980263352394104,-0.35690197348594666,0.4962069094181061
1750171169400173041,7.266362190246582,0.7649966478347778,-0.007261030375957489,0.7453244924545288,3.549673080444336,0.09530363976955414,-0.6600249409675598,-0.3903776705265045,0.36802661418914795
1750171169450107064,8.204959869384766,-0.24543233215808868,-0.17441192269325256,0.1523890197277069,3.8749327659606934,-1.2982604503631592,-0.7165849804878235,-0.3743804395198822,0.28048640489578247
1750171169482743615,9.42065715789795,2.390531539916992,0.5135830044746399,-2.7873287200927734,3.1608612537384033,-2.1358416080474854,-0.7434835433959961,-0.3930475115776062,0.1813923418521881
1750171169537729613,4.966595649719238,5.2353410720825195,0.9798266887664795,-7.779455184936523,2.1495001316070557,-0.7532243728637695,-0.7240996956825256,-0.4490026831626892,0.05836246535181999
1750171169537742354,4.313747882843018,-1.1010668277740479,6.440284252166748,-1.1116431951522827,2.2268826961517334,1.542600154876709,-0.7003466486930847,-0.4865261912345886,-0.1651746779680252
1750171169600227271,3.649282693862915,0.0509822741150856,2.866788625717163,0.8067051768302917,1.6450687646865845,0.5433480143547058,-0.6821894645690918,-0.4044342637062073,-0.3017336130142212
1750171169647668744,7.152669906616211,2.5156750679016113,1.8083611726760864,-0.09291104227304459,2.82598614692688,1.6548199653625488,-0.6968252658843994,-0.40334972739219666,-0.339603066444397
1750171169682654193,4.73945951461792,-0.13798345625400543,5.573573112487793,-0.5758057236671448,4.111351013183594,2.502291202545166,-0.6770893931388855,-0.38667938113212585,-0.37529996037483215
1750171169737773243,4.146479606628418,-0.7131302356719971,6.412087440490723,-1.2653924226760864,5.697412490844727,2.696981906890869,-0.6449020504951477,-0.3132891058921814,-0.49081963300704956
1750171169737785706,1.685126543045044,-1.8990050554275513,8.883214950561523,-0.4327344596385956,7.352862358093262,2.7644543647766113,-0.5584425330162048,-0.21883510053157806,-0.6264179944992065
1750171169800205866,-2.9508938789367676,-3.6939120292663574,8.330192565917969,-2.367418050765991,7.404480934143066,2.1981921195983887,-0.3909189701080322,-0.1390441656112671,-0.7736794948577881
1750171169850228354,-3.021057367324829,-5.380735397338867,9.94715404510498,-0.8876422047615051,6.355359077453613,0.38249891996383667,-0.17088377475738525,-0.07977712154388428,-0.853805422782898
1750171169882794518,-6.102566719055176,-4.656493186950684,8.395557403564453,0.22543862462043762,5.800458908081055,-0.08869791030883789,0.06458941847085953,-0.013398779556155205,-0.8725025653839111
1750171169937744721,-6.3607330322265625,-3.763471841812134,6.254568099975586,-0.3565094470977783,5.683569431304932,-0.8513401746749878,0.2832238972187042,-0.032763104885816574,-0.8284885883331299
1750171169937758034,-8.579611778259277,-4.712695121765137,7.176041603088379,-1.4669992923736572,3.303220748901367,-0.9593445062637329,0.4624626040458679,-0.023639917373657227,-0.7499370574951172
1750171170000280046,-9.672442436218262,-4.999133586883545,6.396142482757568,-0.17431873083114624,2.3669800758361816,-0.10757031291723251,0.5847248435020447,0.02482842281460762,-0.6683626174926758
1750171170050260895,-7.043270587921143,-2.617783308029175,2.1463732719421387,-1.6213898658752441,2.7926459312438965,0.02844395861029625,0.6485154032707214,0.05618928745388985,-0.5971592664718628
1750171170082747777,-9.464627265930176,-2.667556047439575,-1.2179334163665771,-1.3095471858978271,5.2948994636535645,0.22450050711631775,0.6876351833343506,0.06375525146722794,-0.5409482717514038
1750171170137793297,-9.402770042419434,-5.901815414428711,-2.262639284133911,-3.817098617553711,6.607819080352783,0.37459567189216614,0.7872089147567749,0.0914948359131813,-0.40366798639297485
1750171170137805975,-11.190208435058594,-5.267699241638184,2.477959632873535,-6.276695251464844,2.326659679412842,0.44931110739707947,0.8649464249610901,0.09792833030223846,-0.1804436296224594
1750171170200185940,-7.310251712799072,-2.7835094928741455,-4.0062737464904785,-2.0146422386169434,0.43164485692977905,0.41290536522865295,0.8867049813270569,0.10163898020982742,-0.011138551868498325
1750171170250205251,-8.66000747680664,-4.778858184814453,-3.192068576812744,-3.5404562950134277,1.1328717470169067,-0.9734165668487549,0.890380322933197,0.07587356865406036,0.015965264290571213
1750171170282748181,-8.860930442810059,0.5224516987800598,-6.474332332611084,-2.6037182807922363,1.1344698667526245,-1.2387416362762451,0.8685001730918884,0.09238719195127487,0.07503397017717361
1750171170337730109,-8.120031356811523,-2.9739530086517334,-5.041647911071777,-3.203770160675049,2.2554550170898438,0.7554880976676941,0.8801075220108032,0.12188869714736938,0.10599230974912643
1750171170337742902,-6.990969657897949,-1.8010460138320923,-6.738510608673096,-3.306814670562744,1.2074484825134277,-0.12617124617099762,0.8754256963729858,0.0966053158044815,0.19973908364772797
1750171170400231950,-7.277823448181152,4.682062149047852,-10.092177391052246,-2.4334495067596436,1.180505394935608,1.753851294517517,0.8391520380973816,0.06510311365127563,0.2612396478652954
1750171170450081726,-6.621440410614014,-2.39225435256958,-5.847947597503662,-0.36642298102378845,0.3782913386821747,1.977215051651001,0.832080602645874,-0.0020453983452171087,0.29776522517204285
1750171170482691632,-6.0339674949646,-0.6276506185531616,-6.222545623779297,-1.5400607585906982,-0.9268084764480591,-0.2925201952457428,0.8071540594100952,-0.09684277325868607,0.31968870759010315
1750171170537763266,-8.364320755004883,5.598831653594971,-5.1808905601501465,-1.6175082921981812,-1.5594521760940552,0.3171277344226837,0.8099765777587891,-0.113438181579113,0.30979305505752563
1750171170537776154,-5.724430561065674,1.5644233226776123,-8.674466133117676,-1.3695048093795776,0.1185806393623352,1.275937557220459,0.8322506546974182,-0.1287972331047058,0.26418250799179077
1750171170600172455,-9.025566101074219,3.410753011703491,-13.462888717651367,-2.5028140544891357,2.370382308959961,1.4389935731887817,0.8366435766220093,-0.1744249314069748,0.20736807584762573
1750171170647651912,-6.003213405609131,3.120880365371704,-6.095921993255615,-1.0144065618515015,2.1006131172180176,1.209606647491455,0.816836953163147,-0.23509077727794647,0.26993611454963684
1750171170685248888,-3.9184675216674805,3.1103179454803467,-0.6104124188423157,1.8074207305908203,3.245293140411377,1.190246820449829,0.7591716647148132,-0.3054537773132324,0.3233931064605713
1750171170737714633,-10.101675033569336,3.120182514190674,-6.065757751464844,1.8920512199401855,2.875912666320801,0.029328569769859314,0.7198536396026611,-0.3354203999042511,0.3981582820415497
1750171170737729201,-0.8290002346038818,7.640833377838135,-8.061090469360352,0.7629801034927368,-3.092470169067383,-0.5706174373626709,0.6458732485771179,-0.2927088439464569,0.5244616270065308
1750171170800249992,-5.8469014167785645,4.2856221199035645,-11.733919143676758,-0.14204558730125427,-1.5474131107330322,1.0427322387695312,0.6594827175140381,-0.2588607370853424,0.5018082857131958
1750171170850160826,-3.8166251182556152,1.4480676651000977,-8.535123825073242,0.23085525631904602,0.35094591975212097,-0.18300199508666992,0.715286135673523,-0.26403090357780457,0.4314483106136322
1750171170880243599,-2.7041730880737305,0.2842269837856293,-7.362364292144775,1.3308779001235962,0.6217651963233948,-0.8533670902252197,0.708505392074585,-0.27212685346603394,0.4377376139163971
1750171170937801277,-4.535350322723389,2.2058660984039307,-14.717655181884766,-1.2366366386413574,-1.8456370830535889,-1.6453571319580078,0.6994252800941467,-0.25041404366493225,0.46403008699417114
1750171170937813948,-4.995874881744385,1.9025161266326904,-8.875078201293945,-0.8164094090461731,1.2099515199661255,-0.7471983432769775,0.7403064966201782,-0.20125843584537506,0.4330242872238159
1750171171000185471,-6.9429731369018555,5.268373012542725,-11.987699508666992,-0.034673236310482025,3.1279547214508057,0.04535868018865585,0.7468177676200867,-0.20271146297454834,0.42336031794548035
1750171171050238498,-7.825377941131592,6.245692729949951,-9.014796257019043,0.28322336077690125,5.117624759674072,2.1836557388305664,0.7176804542541504,-0.18985210359096527,0.46853700280189514
1750171171080188759,-4.856698989868164,7.137221813201904,-10.184733390808105,-0.49775218963623047,4.776439666748047,4.222182750701904,0.6023970246315002,-0.20063245296478271,0.612372100353241
1750171171137721772,-0.9443598985671997,5.972923278808594,-10.65376091003418,-1.2255640029907227,5.298020839691162,4.332221031188965,0.44306403398513794,-0.2842871844768524,0.6896292567253113
1750171171137735392,0.3861338794231415,4.3050127029418945,-6.759433269500732,-1.6818046569824219,5.6691436767578125,6.265237331390381,0.23244625329971313,-0.3613174259662628,0.7535654306411743
1750171171200234935,4.284452438354492,1.930751085281372,-4.577025890350342,-1.7627577781677246,2.8456616401672363,5.71556282043457,-0.05436911806464195,-0.41827741265296936,0.755581259727478
1750171171250285369,5.809685230255127,1.3043183088302612,-4.0257391929626465,0.34266436100006104,2.2283408641815186,2.3011293411254883,-0.2777423858642578,-0.4260045289993286,0.6809953451156616
1750171171282743114,5.749159812927246,0.2959826588630676,-5.881943702697754,-0.4594343304634094,1.616713523864746,1.7428793907165527,-0.4105818569660187,-0.385705828666687,0.6490769982337952
1750171171337831703,5.623939037322998,2.2020175457000732,-10.889303207397461,-2.3955578804016113,2.996574878692627,2.453772783279419,-0.4885430634021759,-0.3372751474380493,0.6273353099822998
1750171171337845117,7.645185470581055,-3.7831830978393555,-0.6382973790168762,-0.1591864824295044,3.3870325088500977,0.7022669911384583,-0.5723589062690735,-0.3451714813709259,0.5548712015151978
1750171171400281356,5.938170433044434,-2.4810421466827393,-0.1964697539806366,2.0765631198883057,6.106402397155762,-0.9363521337509155,-0.6531080007553101,-0.3165968060493469,0.4456245005130768
1750171171450255386,8.541068077087402,1.6241825819015503,-0.09300726652145386,0.14012283086776733,4.6533331871032715,0.17835304141044617,-0.7308388948440552,-0.30394500494003296,0.3332245349884033
1750171171482631045,7.7151641845703125,-0.6534058451652527,1.483473300933838,-0.3304087817668915,3.2548062801361084,0.17743650078773499,-0.7899676561355591,-0.3159092366695404,0.1716218739748001
1750171171537802032,8.46168041229248,-0.4419291019439697,2.8780579566955566,-0.1670120358467102,2.7929906845092773,-0.05846933275461197,-0.8068020939826965,-0.29792550206184387,0.0429205521941185
1750171171537815361,7.2367777824401855,0.17693081498146057,4.368537902832031,0.15329205989837646,5.385803699493408,-1.4566105604171753,-0.7987486124038696,-0.2847052812576294,-0.04390021786093712
1750171171600167040,4.439650535583496,-1.071998119354248,6.483511447906494,-0.016392314806580544,5.25855016708374,-1.2601372003555298,-0.7823343276977539,-0.30699193477630615,-0.1738528460264206
1750171171647731384,4.798243522644043,-0.32737258076667786,7.978244304656982,-0.06739997118711472,3.426203966140747,0.15010958909988403,-0.6999835968017578,-0.3647569715976715,-0.3567304313182831
1750171171682726079,4.491710186004639,1.2143023014068604,7.604395866394043,0.07688118517398834,1.6624561548233032,0.4187733232975006,-0.6346810460090637,-0.36414527893066406,-0.4567227065563202
1750171171737812375,4.653654098510742,-0.8696731925010681,9.305984497070312,-0.5814438462257385,2.557182550430298,-0.550119161605835,-0.5849772691726685,-0.3608208894729614,-0.5073198676109314
1750171171737825775,7.832043647766113,2.0716052055358887,12.634561538696289,0.026871688663959503,1.979807734489441,-0.8909773230552673,-0.5390287041664124,-0.3611571788787842,-0.5682305097579956
1750171171800234404,4.260534763336182,2.5171430110931396,13.508183479309082,1.782721996307373,0.9464784264564514,-1.407267451286316,-0.4791434407234192,-0.37058210372924805,-0.6115034222602844
1750171171850249874,1.764845371246338,1.5441535711288452,13.409307479858398,3.1859259605407715,-1.5640606880187988,0.043085359036922455,-0.40215423703193665,-0.43647074699401855,-0.6133052706718445
1750171171882694114,3.371654510498047,2.7385873794555664,10.565011024475098,4.107127666473389,-5.195979118347168,1.1940184831619263,-0.4319450855255127,-0.5044645071029663,-0.5379670858383179
1750171171937772839,2.535175085067749,4.911457061767578,5.465181350708008,3.395798921585083,-7.865669250488281,1.3093606233596802,-0.5368298888206482,-0.5591638088226318,-0.3564987778663635
1750171171937785522,3.746486186981201,3.8362138271331787,-0.2625402510166168,2.2178690433502197,-8.148832321166992,4.024615287780762,-0.6247876882553101,-0.5615085363388062,-0.08999333530664444
1750171172000264000,11.496452331542969,1.5496069192886353,-2.12050461769104,2.612884759902954,-4.906063079833984,4.523451328277588,-0.6539416313171387,-0.4740214943885803,0.2742707431316376
1750171172050224235,11.295938491821289,-0.7392460703849792,-1.53066086769104,2.4536333084106445,-4.962455749511719,0.527613639831543,-0.6597754955291748,-0.318615198135376,0.45190557837486267
1750171172082705825,3.2598166465759277,1.1160523891448975,-6.790798187255859,2.2379021644592285,-7.422684192657471,0.7371057271957397,-0.572205662727356,-0.2381884902715683,0.6119561791419983
1750171172137795404,5.036448001861572,0.6672969460487366,-8.268156051635742,1.206318974494934,-8.619274139404297,1.2532504796981812,-0.3964674770832062,-0.15776416659355164,0.760766327381134
1750171172137807390,-1.995434284210205,0.6272854804992676,-5.727063179016113,-0.2969803214073181,-8.462302207946777,1.1326563358306885,-0.07651698589324951,-0.11947710812091827,0.861613929271698
1750171172200280888,-2.043543577194214,0.833501398563385,-9.204787254333496,1.5342164039611816,-5.1426520347595215,0.9852840304374695,0.22813627123832703,-0.1330603063106537,0.813717246055603
1750171172250207286,-2.3897321224212646,-1.631486177444458,-11.943233489990234,0.09889041632413864,-3.5906822681427,0.4086320698261261,0.40717676281929016,-0.1264141947031021,0.7612149715423584
1750171172282620532,-1.5162315368652344,-2.3765482902526855,-8.680575370788574,-1.763743281364441,-4.133395671844482,0.10886330157518387,0.5252808332443237,-0.09586752951145172,0.7048637270927429
1750171172337777531,-4.456422328948975,-1.1406681537628174,-6.687861919403076,-0.2676818370819092,-3.506044864654541,-0.32507848739624023,0.6231967210769653,-0.15491823852062225,0.5935031175613403
1750171172337789874,-6.519487380981445,-0.11655151844024658,-5.968992710113525,0.4929514527320862,-2.35988450050354,-0.7446995973587036,0.7019267082214355,-0.17062821984291077,0.4977186322212219
1750171172400238709,-9.3818359375,-0.4391913115978241,-8.592411994934082,1.1611385345458984,-2.1758980751037598,0.7894589900970459,0.7584192156791687,-0.1387515664100647,0.42739346623420715
1750171172450214782,-6.978322982788086,-1.0082327127456665,-7.267469882965088,-0.6642870306968689,-3.007697820663452,1.4707491397857666,0.8046799302101135,-0.1323358714580536,0.3732180595397949
1750171172482805476,-8.219493865966797,-2.4229016304016113,-5.241252899169922,-1.6345229148864746,-4.276522636413574,-0.1067342460155487,0.8144875764846802,-0.18848267197608948,0.27307817339897156
1750171172537798772,-9.677952766418457,1.8776837587356567,-4.402356147766113,-1.549180269241333,-5.869081497192383,-1.0010710954666138,0.8407114148139954,-0.21010076999664307,0.12692447006702423
1750171172537811176,-10.450403213500977,-0.2524845004081726,-0.5545429587364197,-0.840801477432251,-6.095663547515869,-1.3721380233764648,0.8632801175117493,-0.16774460673332214,-0.06983060389757156
1750171172600279298,-10.43210506439209,-1.661197543144226,1.1447194814682007,-0.7038784623146057,-6.19559383392334,-1.8173710107803345,0.8315504193305969,-0.11731522530317307,-0.2666621506214142
1750171172647738712,-8.821508407592773,-2.2255303859710693,3.2546048164367676,0.284681499004364,-8.138341903686523,-3.4660511016845703,0.7485576868057251,-0.06894475966691971,-0.47009509801864624
1750171172685166821,-8.063028335571289,-0.4868677854537964,7.022390365600586,2.4241747856140137,-8.032236099243164,-2.675020456314087,0.5946903824806213,0.0077789053320884705,-0.6712966561317444
1750171172737788429,-4.275611400604248,0.34613218903541565,7.239519119262695,3.5893003940582275,-7.083368301391602,0.1330612748861313,0.34954363107681274,0.02999667264521122,-0.814445972442627
1750171172737802785,-3.6573519706726074,-0.7147281169891357,8.916250228881836,3.9520103931427,-2.142543077468872,0.8731886744499207,0.0740390494465828,-0.06710148602724075,-0.8688563704490662
1750171172800235984,-3.379055976867676,-1.484824776649475,11.038131713867188,1.8484514951705933,-1.0054528713226318,0.040068916976451874,-0.05710676312446594,-0.2043369561433792,-0.8435472846031189
1750171172850295474,-4.297513961791992,0.3462047874927521,9.734130859375,1.8817135095596313,-2.6291019916534424,-1.2472500801086426,-0.08517185598611832,-0.27743878960609436,-0.825160562992096
1750171172880183825,-1.7163761854171753,-0.3264515995979309,11.370558738708496,0.7242242097854614,-4.631687641143799,-3.263909101486206,-0.1562545746564865,-0.3256010115146637,-0.7792664170265198
1750171172937775428,1.0600898265838623,1.7194658517837524,10.40850830078125,-0.16428714990615845,-5.926105499267578,-4.3494744300842285,-0.22799059748649597,-0.3990393579006195,-0.7401289939880371
1750171172937787874,4.592653274536133,5.0928568840026855,9.01689624786377,0.3433428406715393,-4.206465721130371,-1.7322930097579956,-0.31174522638320923,-0.44033995270729065,-0.6648058891296387
1750171173000210388,5.307339191436768,3.3233065605163574,9.710485458374023,0.9615404605865479,-4.097026348114014,0.607184886932373,-0.3993789553642273,-0.4769052565097809,-0.6098829507827759
1750171173050207813,5.577730655670166,3.4625205993652344,6.200531959533691,0.3265865743160248,-2.691579580307007,1.0301401615142822,-0.4754036068916321,-0.48396554589271545,-0.5239975452423096
1750171173080093319,5.654260635375977,3.5805883407592773,7.85572624206543,1.287672758102417,-3.072504997253418,0.937596321105957,-0.5580876469612122,-0.4725918173789978,-0.4452883005142212
1750171173137730690,8.651119232177734,4.1662492752075195,4.314985752105713,1.274052381515503,-2.910928249359131,1.3104596138000488,-0.629876434803009,-0.45997706055641174,-0.3423394560813904
1750171173137740649,8.22883415222168,2.9714488983154297,4.857343673706055,0.2654929757118225,-0.658387303352356,1.7284058332443237,-0.6913975477218628,-0.4451562464237213,-0.23874154686927795
1750171173200206674,7.471434593200684,0.7274246215820312,4.999321937561035,0.1491851508617401,-1.3584563732147217,0.7161279916763306,-0.7200820446014404,-0.4075961410999298,-0.19353258609771729
1750171173250207625,9.452719688415527,2.210296154022217,3.183192014694214,1.3222028017044067,-0.9265066981315613,1.4662635326385498,-0.7497336864471436,-0.36703813076019287,-0.18533512949943542
1750171173282692667,7.150375843048096,-1.2471771240234375,7.080818176269531,0.5273494124412537,-0.2321464568376541,1.3972973823547363,-0.7846671342849731,-0.3389299511909485,-0.11364784836769104
1750171173337789069,6.403706073760986,2.4732418060302734,5.601169586181641,-1.0199308395385742,-2.2432994842529297,-0.5644686818122864,-0.7903957366943359,-0.3001384139060974,-0.1005779430270195
1750171173337801817,11.090193748474121,-1.6368204355239868,5.010870933532715,-2.305877923965454,-0.029300548136234283,-0.5466405749320984,-0.8019453287124634,-0.2928982675075531,-0.030768204480409622
1750171173400243459,10.608297348022461,-4.513973712921143,2.4199891090393066,0.6686368584632874,-0.8176918029785156,-2.8286664485931396,-0.7930604815483093,-0.31519225239753723,-0.06379476189613342
1750171173450104751,12.99340534210205,1.8804657459259033,1.8326659202575684,2.4593043327331543,-0.6894597411155701,-4.510992527008057,-0.7632628679275513,-0.37292659282684326,-0.05521160736680031
1750171173482713055,8.743755340576172,3.605604648590088,2.705240249633789,1.2168759107589722,-2.0306477546691895,-4.44789981842041,-0.692047655582428,-0.493726521730423,0.016489535570144653
1750171173537788308,6.4264702796936035,5.666609287261963,2.013925790786743,0.7888943552970886,-2.4755642414093018,-3.170557975769043,-0.6069897413253784,-0.6033521890640259,0.08906510472297668
1750171173537800800,5.4658050537109375,9.1875638961792,3.051621198654175,-0.23488540947437286,-2.9328410625457764,-1.162229299545288,-0.47372615337371826,-0.6920981407165527,0.16804689168930054
1750171173600275359,7.243092060089111,8.508835792541504,-0.5180240273475647,-3.3132731914520264,-5.284247398376465,-2.5401062965393066,-0.41467568278312683,-0.7081942558288574,0.22217150032520294
1750171173647738448,3.349835157394409,10.72663688659668,3.3665738105773926,0.076182521879673,-3.4135258197784424,-1.3883165121078491,-0.28688326478004456,-0.7676845788955688,0.20674726366996765
1750171173682900525,-0.25578367710113525,8.304525375366211,5.407090663909912,2.0017940998077393,-3.883206605911255,0.3025112748146057,-0.20890168845653534,-0.7957614064216614,0.21504220366477966
1750171173737807243,-1.0219565629959106,2.444868803024292,2.821880578994751,5.942384243011475,-6.603466510772705,1.635437250137329,-0.15640336275100708,-0.7931400537490845,0.26537132263183594
1750171173737820451,0.34053391218185425,-1.8281266689300537,-4.297210693359375,7.274055480957031,-7.105775833129883,1.1029282808303833,-0.11878227442502975,-0.7137973308563232,0.4659535884857178
1750171173800248141,1.016380786895752,-0.5760864019393921,-7.486360549926758,7.597766399383545,-4.552250862121582,1.2138129472732544,0.01497230026870966,-0.5732137560844421,0.655794620513916
1750171173850288963,0.5844796895980835,3.42612886428833,-8.907401084899902,2.5399131774902344,-3.794497489929199,-0.22796034812927246,0.14163456857204437,-0.35696762800216675,0.7847138047218323
1750171173882777097,-1.1157941818237305,1.0741865634918213,-8.707167625427246,1.5829299688339233,-2.707397222518921,0.588909387588501,0.2835666239261627,-0.21616913378238678,0.7768717408180237
1750171173937728380,-0.10888194292783737,0.9255966544151306,-13.272034645080566,2.2782092094421387,-1.94245183467865,1.9054901599884033,0.3754219114780426,-0.1862695813179016,0.7558049559593201
1750171173937740853,-0.9262667894363403,-4.592499256134033,-12.70635986328125,1.2527741193771362,-0.9434223771095276,1.3631821870803833,0.45110881328582764,-0.1290455162525177,0.7471494674682617
1750171174000210809,-2.846642017364502,0.5948160886764526,-12.616819381713867,-0.3792400360107422,0.07758193463087082,1.7109577655792236,0.4712105691432953,-0.12298867106437683,0.7316241264343262
1750171174050224281,-3.2059683799743652,-8.21589469909668,-12.54008674621582,-3.7151737213134766,2.351335048675537,0.7140275239944458,0.4811519980430603,-0.1334208995103836,0.728894829750061
1750171174082718130,-1.5234394073486328,-1.8618957996368408,-11.610729217529297,-0.5578759908676147,2.9896957874298096,-2.731024742126465,0.4254305064678192,-0.21710644662380219,0.7388160824775696
1750171174137745789,-0.13544033467769623,0.2522168755531311,-9.767597198486328,-2.692810535430908,2.1501705646514893,-2.774834156036377,0.3368076682090759,-0.25656309723854065,0.7600883841514587
1750171174137755587,0.0016577541828155518,-2.3480396270751953,-11.63059139251709,0.2990682125091553,1.936643362045288,-4.133527755737305,0.29544952511787415,-0.28082767128944397,0.7574748396873474
1750171174200195716,0.15863877534866333,-2.5623366832733154,-10.252789497375488,-0.14214123785495758,1.4205687046051025,-6.761695861816406,0.2650747001171112,-0.2805016338825226,0.7656217217445374
1750171174250231841,-0.45523935556411743,2.743932008743286,-6.480498790740967,-2.9492545127868652,-2.6531152725219727,-5.534092426300049,0.27065137028694153,-0.19849511981010437,0.789480984210968
1750171174282652479,-0.8981891870498657,3.058854579925537,-11.528642654418945,-2.629915952682495,-1.8325138092041016,-3.690070390701294,0.3583531379699707,-0.193868488073349,0.7580755949020386
1750171174337693434,-4.490542888641357,3.3873937129974365,-12.98561954498291,-2.0542590618133545,0.3841027617454529,-3.7975053787231445,0.46484100818634033,-0.21916994452476501,0.687549889087677
1750171174337704283,-3.130521774291992,2.4675557613372803,-9.751431465148926,-2.376739263534546,2.9540724754333496,-4.166743278503418,0.5156816244125366,-0.1950092911720276,0.663888692855835
1750171174400288961,-3.4720394611358643,3.7350308895111084,-8.948507308959961,-1.885453462600708,3.5112924575805664,-4.231400966644287,0.48573625087738037,-0.19034478068351746,0.6855092644691467
1750171174450276589,-2.9109506607055664,3.348253011703491,-8.873339653015137,-0.9215117692947388,2.9883875846862793,-3.7881500720977783,0.40899741649627686,-0.17028497159481049,0.7276834845542908
1750171174482734473,-3.0307326316833496,3.578387975692749,-9.84057331085205,-0.7113144397735596,2.3766114711761475,-3.6817033290863037,0.3394342064857483,-0.1409718543291092,0.7770291566848755
1750171174537720409,-4.103353023529053,3.541106939315796,-8.298824310302734,-0.1264200061559677,2.431882858276367,-2.259232759475708,0.27922749519348145,-0.12980185449123383,0.8068041801452637
1750171174537733165,-2.7292563915252686,4.818044662475586,-8.008522033691406,-0.3127344250679016,1.9850764274597168,-3.1574339866638184,0.2257809340953827,-0.11044289916753769,0.830296516418457
1750171174600266415,-2.3296890258789062,5.112264633178711,-8.59952163696289,1.7684293985366821,2.882934808731079,-4.004215717315674,0.15486496686935425,-0.09385810047388077,0.8392465114593506
1750171174647793518,-2.327610492706299,1.0872118473052979,-10.822737693786621,1.3528058528900146,2.2367732524871826,-4.4371657371521,0.06738648563623428,-0.0511045828461647,0.8471459746360779
1750171174685225967,-4.5571746826171875,6.5220465660095215,-6.548994064331055,6.390219688415527,1.1886920928955078,-4.10418701171875,-0.016719935461878777,-0.020416703075170517,0.8619788885116577
1750171174737753960,-3.0711705684661865,-0.8832882642745972,-14.643402099609375,5.79453182220459,1.9835646152496338,-3.5112199783325195,-0.08586236089468002,0.1473739743232727,0.8340715169906616
1750171174737769361,-2.7708489894866943,-4.14193868637085,-8.577187538146973,8.196779251098633,3.068039894104004,-6.57478666305542,-0.11862300336360931,0.2941027283668518,0.7815840840339661
1750171174800277899,-0.33748659491539,-5.286775588989258,-5.569424629211426,-2.4793574810028076,-2.498323917388916,-6.345731735229492,-0.3139995038509369,0.5141807794570923,0.5844311714172363
1750171174850290270,-0.639759361743927,-4.14345121383667,-8.533360481262207,-2.076497793197632,-2.5992467403411865,-6.5339202880859375,-0.44076624512672424,0.45547136664390564,0.593216061592102
1750171174880269639,0.08030997216701508,-0.2067449539899826,-8.842071533203125,-3.3417978286743164,-1.5733671188354492,-5.907498836517334,-0.4588935375213623,0.2814065217971802,0.6693558096885681
1750171174937833922,-1.509289264678955,-2.3956689834594727,-8.479591369628906,-2.1454379558563232,-0.8764179348945618,-5.5672478675842285,-0.4548206031322479,0.06254618614912033,0.7166693806648254
1750171174937847400,-1.1495997905731201,-0.7895233631134033,-10.513789176940918,-0.1922188699245453,-0.06302762031555176,-5.7631001472473145,-0.40985602140426636,-0.10714676231145859,0.7329696416854858
1750171175000269057,-2.316391944885254,0.38887327909469604,-11.09753704071045,1.0884225368499756,0.40138620138168335,-4.7639031410217285,-0.34439805150032043,-0.23459693789482117,0.7236860394477844
1750171175050242691,-1.70455801486969,-0.7305662631988525,-9.95248794555664,1.2833250761032104,0.04436470568180084,-4.671505928039551,-0.30358922481536865,-0.2703520357608795,0.7464280128479004
1750171175080235597,0.2040468007326126,-0.634891927242279,-9.732365608215332,1.3492393493652344,-0.6281230449676514,-4.286632537841797,-0.25954145193099976,-0.29520538449287415,0.7559359073638916
1750171175137814342,-1.8410604000091553,-0.40791556239128113,-10.073779106140137,1.26912522315979,-1.1836012601852417,-3.3404898643493652,-0.18395109474658966,-0.2937563955783844,0.7808740735054016
1750171175137827681,-1.5443756580352783,-1.3945295810699463,-9.385159492492676,0.28395968675613403,-1.1116360425949097,-2.7638585567474365,-0.1113237515091896,-0.2731989622116089,0.808982253074646
1750171175200230972,-1.9197278022766113,-1.366936445236206,-10.125261306762695,0.7150822281837463,-0.4849723279476166,-2.5950560569763184,-0.04931727424263954,-0.25880226492881775,0.8263408541679382
1750171175250301600,-1.5606173276901245,-0.3516768217086792,-10.002641677856445,0.3704417943954468,-0.2793225944042206,-2.380568504333496,0.005430910270661116,-0.2480613738298416,0.8298028707504272
1750171175280214894,-1.81791090965271,-1.1369519233703613,-11.387673377990723,0.4740979075431824,0.3997589945793152,-2.4054994583129883,0.04635050892829895,-0.24859076738357544,0.8323836326599121
1750171175337801692,-0.8684390783309937,-1.0415499210357666,-10.172933578491211,0.22555698454380035,1.0679950714111328,-2.0433757305145264,0.0876711905002594,-0.22152575850486755,0.8316349983215332
1750171175337815171,-1.4043681621551514,-0.004317931830883026,-9.638986587524414,0.41147106885910034,0.4642539322376251,-1.4373414516448975,0.04771454259753227,-0.19494277238845825,0.8459023237228394
1750171175400175326,-1.9299390316009521,0.6481310129165649,-9.757163047790527,1.1454168558120728,0.7490644454956055,0.3376351594924927,0.0479682981967926,-0.19127720594406128,0.8526370525360107
1750171175450209954,-2.3239917755126953,0.9288127422332764,-9.255833625793457,0.6188672780990601,0.9658722281455994,2.855034351348877,0.04196861386299133,-0.1680128276348114,0.8656864166259766
1750171175482653722,-3.6375343799591064,0.8104338049888611,-10.770868301391602,-0.39781758189201355,0.6197639107704163,6.232696533203125,-0.00821051187813282,-0.12597593665122986,0.8692269921302795
1750171175537778786,-6.326747894287109,-1.3839545249938965,-9.702052116394043,-1.3021188974380493,0.8138012886047363,8.307071685791016,-0.06598140299320221,-0.12069514393806458,0.8689317107200623
1750171175537791518,-4.956030368804932,0.3210424780845642,-8.445867538452148,-1.2183431386947632,0.43676793575286865,8.613754272460938,-0.12072564661502838,-0.11097673326730728,0.8520293831825256
1750171175600210798,-6.338898181915283,-1.2786319255828857,-9.90351676940918,-1.2168612480163574,0.2928927540779114,8.61442756652832,-0.18869228661060333,-0.08444643765687943,0.8376412391662598
1750171175647689838,-8.23058032989502,-0.7179062366485596,-8.741201400756836,0.08787708729505539,0.7097330093383789,8.603253364562988,-0.23229561746120453,-0.020314477384090424,0.8180776834487915
1750171175685196561,-8.9083833694458,-2.7309560775756836,-11.673440933227539,0.3849969208240509,0.9292932748794556,8.600119590759277,-0.2617020905017853,0.0589488185942173,0.8094897270202637
1750171175737712055,-9.112588882446289,-1.567711353302002,-10.36672592163086,-0.24795183539390564,1.1877976655960083,8.603602409362793,-0.23896163702011108,0.20696699619293213,0.7941058874130249
1750171175737727511,-7.486221790313721,2.0291364192962646,-9.328957557678223,-0.031906213611364365,0.9150826930999756,8.603260040283203,-0.15905888378620148,0.3071374297142029,0.7857103943824768
1750171175800209587,-9.700685501098633,2.3072471618652344,-10.08320426940918,-1.2549282312393188,0.11498339474201202,8.615472793579102,-0.032150521874427795,0.3779148757457733,0.7735719084739685
1750171175850262815,-6.865834712982178,1.3110980987548828,-10.018808364868164,-1.312249779701233,-0.7078975439071655,8.61945629119873,0.1376548409461975,0.3211558163166046,0.797758162021637
1750171175882685624,-5.203347206115723,1.9465100765228271,-8.027494430541992,-1.0800292491912842,-1.6841012239456177,8.62205982208252,0.2846742272377014,0.1686975061893463,0.8003548383712769
1750171175937789687,-7.40345573425293,3.272772789001465,-7.766909599304199,-1.643783450126648,-2.9346375465393066,8.631561279296875,0.3761293888092041,-0.014564435929059982,0.7826319336891174
1750171175937802443,-6.417701721191406,3.068880558013916,-8.621272087097168,-0.9730355739593506,-3.015425205230713,7.863617897033691,0.39477235078811646,-0.221677765250206,0.7334358096122742
1750171176000246516,-10.39124870300293,1.3630160093307495,-7.3064985275268555,-0.8635404109954834,-3.4270029067993164,7.5717058181762695,0.3665294647216797,-0.3727606534957886,0.6745481491088867
1750171176050181886,-7.901535511016846,-0.3140769600868225,-8.484285354614258,0.7533557415008545,-3.0553526878356934,5.802187919616699,0.3148561120033264,-0.5001718401908875,0.6141759157180786
1750171176082659787,-5.279269218444824,-2.387601375579834,-8.612750053405762,2.0959815979003906,-2.3641765117645264,4.3090033531188965,0.2763189673423767,-0.5470290184020996,0.6050105690956116
1750171176137788155,-1.401479959487915,-4.732914924621582,-12.518155097961426,0.3041270971298218,-1.4281208515167236,1.2878308296203613,0.23583437502384186,-0.5336624383926392,0.6091680526733398
1750171176137802311,-5.822063446044922,3.1417665481567383,-12.573002815246582,-1.2024961709976196,0.43993955850601196,-0.7392463088035583,0.2265380620956421,-0.5184067487716675,0.6320978403091431
1750171176200217769,-5.49755334854126,4.543282985687256,-8.890469551086426,-1.4396923780441284,1.0845075845718384,0.16926291584968567,0.25202202796936035,-0.5551043748855591,0.5933948159217834
1750171176250199600,-3.5885448455810547,4.386082649230957,-7.3675408363342285,-1.4271912574768066,0.7699165344238281,0.4199157655239105,0.227201446890831,-0.5763987302780151,0.5716676115989685
1750171176282652340,-2.526918888092041,2.4649546146392822,-7.494856357574463,-0.7568789720535278,0.35455238819122314,-0.030388230457901955,0.17816656827926636,-0.6113672852516174,0.5450501441955566
1750171176337793726,-2.851442813873291,3.225647211074829,-9.881420135498047,0.2681688666343689,-0.09192565828561783,-1.013899803161621,0.17036797106266022,-0.6341302394866943,0.5243998169898987
1750171176337806698,-3.1451210975646973,3.6082022190093994,-10.169852256774902,0.271004855632782,0.1414652168750763,-1.6242324113845825,0.19469034671783447,-0.6347416639328003,0.5427380204200745
1750171176400200309,-3.514047861099243,3.511390447616577,-9.058215141296387,0.10036490857601166,0.5146788358688354,-2.2571144104003906,0.22540904581546783,-0.6079480051994324,0.5278787016868591
1750171176450271752,-3.7529468536376953,4.138376235961914,-8.701081275939941,0.42291080951690674,0.624910295009613,-2.3436553478240967,0.2566610276699066,-0.5825092196464539,0.5332127809524536
1750171176482669023,-2.727766513824463,4.121292591094971,-7.728017807006836,0.8480369448661804,0.5599773526191711,-2.100463628768921,0.3019649088382721,-0.5598878264427185,0.5562356114387512
1750171176537752532,-3.377549648284912,4.562748908996582,-9.53982925415039,0.5478842854499817,0.5683519840240479,-1.647915005683899,0.3339780271053314,-0.5234507322311401,0.581775963306427
1750171176537765867,-3.3112335205078125,6.521836757659912,-7.831578731536865,-0.6156566739082336,0.38374802470207214,0.23848001658916473,0.36946842074394226,-0.4783325791358948,0.6041756272315979
1750171176600190413,-0.7874476313591003,1.0660021305084229,-5.628992080688477,3.6164722442626953,0.2946271598339081,0.7520386576652527,0.358903169631958,-0.4814063608646393,0.5934279561042786
1750171176647726786,-2.8008644580841064,-2.2844595909118652,-10.514274597167969,3.5912740230560303,-0.6602086424827576,-0.4519413411617279,0.33463093638420105,-0.4294669032096863,0.6658051013946533
1750171176685192156,-1.9098774194717407,-0.03713923692703247,-10.65574836730957,-1.8490607738494873,0.4393106698989868,-0.6810060739517212,0.3686206638813019,-0.3112947344779968,0.7082614898681641
1750171176737700298,-2.5549023151397705,3.2390902042388916,-8.236618041992188,-2.0564820766448975,1.193225622177124,-0.10135866701602936,0.37114930152893066,-0.328762024641037,0.6882637739181519
1750171176737714974,-1.5535013675689697,-2.07242488861084,-6.897149085998535,0.04406188428401947,0.8966162800788879,-0.10538390278816223,0.33651867508888245,-0.36259394884109497,0.6894367337226868
1750171176800277173,-0.6248093843460083,0.44700464606285095,-9.756804466247559,0.3429557979106903,0.9343104958534241,-1.3979312181472778,0.3187289834022522,-0.39258450269699097,0.6815948486328125
1750171176850265709,-0.13775666058063507,0.001217283308506012,-6.923391819000244,1.2575751543045044,-0.03138905018568039,-0.8470999598503113,0.3162536025047302,-0.36343899369239807,0.6948637366294861
1750171176880172866,0.3878210783004761,-0.5524046421051025,-8.486650466918945,0.3975299596786499,0.7929578423500061,-0.7828974723815918,0.29712215065956116,-0.3255883455276489,0.7171799540519714
1750171176937789734,1.3565986156463623,-1.1256486177444458,-9.433255195617676,0.1715797334909439,1.3992282152175903,-0.28739017248153687,0.31788748502731323,-0.3002307415008545,0.7117602825164795
1750171176937802186,0.8306816220283508,-0.6859875321388245,-9.122161865234375,0.04935302585363388,0.8576328158378601,-1.0484484434127808,0.271281361579895,-0.28425443172454834,0.7390503287315369
1750171177000237184,-1.3090760707855225,0.8053840398788452,-6.814428806304932,-0.45203283429145813,0.8946730494499207,-0.8077409863471985,0.2583518326282501,-0.28105708956718445,0.7617520093917847
1750171177050291930,0.36872413754463196,-0.9597443342208862,-10.291417121887207,-0.2388095259666443,-0.4468608498573303,-0.7083436250686646,0.24113287031650543,-0.28016677498817444,0.7539427876472473
1750171177080146018,1.0647205114364624,-0.34298211336135864,-8.834094047546387,-0.461308091878891,-0.41541680693626404,0.2407514452934265,0.24427834153175354,-0.27553460001945496,0.7406913638114929
1750171177137724934,-0.05477634072303772,0.36621949076652527,-8.96232795715332,0.2341768741607666,0.5520424842834473,0.06038561463356018,0.2677261233329773,-0.29332005977630615,0.7388164401054382
1750171177137738601,1.2888127565383911,0.3410356342792511,-9.461923599243164,0.28485727310180664,0.11977165937423706,-0.2177852839231491,0.2608599066734314,-0.29582127928733826,0.7383823990821838
1750171177200280368,1.3654204607009888,0.347146213054657,-8.458147048950195,-0.9761974811553955,-0.5984400510787964,0.42162755131721497,0.24413226544857025,-0.2934860289096832,0.7474042177200317
1750171177250269937,0.16608703136444092,1.441373348236084,-9.92675495147705,-0.8692637085914612,-0.3655339181423187,0.7996764183044434,0.26040947437286377,-0.30006512999534607,0.7249140739440918
1750171177280209558,-0.6108577847480774,1.8294918537139893,-10.22777271270752,0.7350894212722778,0.10159173607826233,-0.3514370024204254,0.27252376079559326,-0.352385550737381,0.7055256366729736
1750171177337824286,0.09170933067798615,1.239264726638794,-11.109384536743164,-0.11515156179666519,-0.2248213142156601,-0.520270049571991,0.24253658950328827,-0.3244585692882538,0.7103458642959595
1750171177337837349,-1.9998276233673096,2.1973319053649902,-11.504292488098145,0.01234842836856842,-0.17110538482666016,0.6952086687088013,0.2598542273044586,-0.3250601589679718,0.7215216159820557
1750171177400250480,-0.11723256856203079,1.2797212600708008,-11.135838508605957,0.22467921674251556,-0.4854776859283447,0.8536171913146973,0.2627829611301422,-0.32091087102890015,0.7015460729598999
1750171177450299856,-0.6011624336242676,2.078402280807495,-11.68191146850586,1.0730490684509277,-0.036857813596725464,-0.26064640283584595,0.2660002112388611,-0.33635663986206055,0.7051112651824951
1750171177482665797,-1.7517305612564087,0.518238365650177,-12.926009178161621,-2.5114474296569824,-1.353428602218628,0.32893604040145874,0.2637474834918976,-0.288872629404068,0.715043842792511
1750171177537643064,-2.3259880542755127,3.235429286956787,-10.86031723022461,-0.3827419579029083,-0.116876520216465,0.8457055687904358,0.30613070726394653,-0.34508827328681946,0.6841189861297607
1750171177537657317,-1.2302274703979492,3.1134939193725586,-10.456733703613281,1.3718037605285645,0.2136935442686081,0.21967613697052002,0.2944541871547699,-0.3981533348560333,0.666585385799408
1750171177600229112,-1.5126290321350098,0.8923435807228088,-10.948505401611328,2.4014596939086914,0.40401214361190796,-0.03234461694955826,0.28166067600250244,-0.3624286949634552,0.6724925637245178
1750171177647781198,-0.821397602558136,1.9856350421905518,-10.97467041015625,1.4595540761947632,1.0676045417785645,0.3888215720653534,0.26628097891807556,-0.3123244345188141,0.6983954906463623
1750171177682694272,-0.30014464259147644,-4.652186870574951,-9.524621963500977,0.4443916380405426,1.0498690605163574,0.08717633783817291,0.25508323311805725,-0.2456272542476654,0.7413617372512817
1750171177737803849,-1.6225016117095947,2.5076985359191895,-8.746081352233887,-0.5220322608947754,-0.1152394488453865,1.2972134351730347,0.22870612144470215,-0.23198983073234558,0.7632127404212952
1750171177737819043,0.744674801826477,-0.6462112665176392,-9.99913215637207,-3.606382369995117,-0.6285568475723267,1.9994077682495117,0.1978456676006317,-0.22721928358078003,0.7511700987815857
1750171177800297062,1.9490681886672974,-3.7157320976257324,-10.51262092590332,0.6460592746734619,0.5179723501205444,-0.5674412250518799,0.20844686031341553,-0.34516847133636475,0.7216217517852783
1750171177850251070,-0.5436486005783081,1.9141287803649902,-9.861151695251465,1.6224812269210815,0.44426262378692627,-1.1413867473602295,0.1768592745065689,-0.37466123700141907,0.706175684928894
1750171177882686900,-0.6597086191177368,0.7100996971130371,-11.598958969116211,0.46164295077323914,-0.5396376848220825,-0.34250155091285706,0.17863278090953827,-0.3139595687389374,0.7298028469085693
1750171177937779753,0.10606201738119125,-0.004741109907627106,-9.807122230529785,0.0033812846522778273,-0.006356500554829836,0.16274097561836243,0.19325734674930573,-0.28589364886283875,0.7475258708000183
1750171177937792516,0.1644730567932129,-0.05333106219768524,-9.815413475036621,0.004327565897256136,-0.003280885284766555,-0.056237392127513885,0.20015566051006317,-0.27161678671836853,0.7412403225898743
1750171178000254299,-0.45569780468940735,-0.13272012770175934,-9.813719749450684,0.004329998977482319,-0.004758148454129696,-0.11245504021644592,0.2131779044866562,-0.2949882745742798,0.7353461980819702
1750171178050299893,0.2213629186153412,0.02597476914525032,-9.809983253479004,0.000781888491474092,-0.007680544629693031,-0.19120165705680847,0.1997717022895813,-0.2873479723930359,0.7378575801849365
1750171178082681109,-0.3470255434513092,-0.17883828282356262,-9.814905166625977,0.004611047450453043,-0.003440429689362645,-0.07599244266748428,0.1998889297246933,-0.2871542274951935,0.7412152886390686
1750171178137809075,-0.05914709344506264,-0.056285783648490906,-9.814697265625,0.003942155744880438,-0.005076216068118811,-0.007432850077748299,0.19961631298065186,-0.2907252013683319,0.7344878315925598
1750171178137821791,-0.17789407074451447,-0.005629003047943115,-9.814045906066895,0.005447499454021454,-0.0036337212659418583,-0.06131872534751892,0.20685414969921112,-0.284364253282547,0.7450158596038818
1750171178200292544,0.04694671928882599,-0.13645564019680023,-9.814188957214355,0.002640104154124856,-0.005917281843721867,-0.07345844805240631,0.18977312743663788,-0.28598371148109436,0.7439355254173279
1750171178250291948,-0.06569252163171768,-0.0647338405251503,-9.80744743347168,0.003910920117050409,-0.0048339469358325005,-0.002612215233966708,0.19963516294956207,-0.29082053899765015,0.7344790101051331
1750171178282678831,-0.06639107316732407,-0.0760127604007721,-9.812972068786621,0.003294504713267088,-0.005083101335912943,-0.002272567478939891,0.21037299931049347,-0.27848055958747864,0.7452378273010254
1750171178337747600,-0.06083281710743904,-0.07170570641756058,-9.812378883361816,0.003592949826270342,-0.004567283671349287,-0.002262467984110117,0.20329393446445465,-0.28744786977767944,0.7414306998252869
1750171178337759860,-0.06631665676832199,-0.07049056887626648,-9.80903434753418,0.0037909955717623234,-0.004611652344465256,-0.002423261059448123,0.2067907750606537,-0.2788601219654083,0.7382807731628418
1750171178400270187,-0.06263468414545059,-0.0654965490102768,-9.809011459350586,0.003733857301995158,-0.004283568821847439,-0.0026863152161240578,0.20683205127716064,-0.2816595137119293,0.741644024848938
1750171178450263613,-0.058702997863292694,-0.06977640092372894,-9.814489364624023,0.004078486934304237,-0.004387813154608011,-0.0024818654637783766,0.20667654275894165,-0.285037100315094,0.7382742166519165
1750171178482619697,-0.06185951828956604,-0.06754221767187119,-9.810457229614258,0.003947952762246132,-0.004611180163919926,-0.002594060730189085,0.2003173977136612,-0.28020477294921875,0.7513128519058228
1750171178537774249,-0.06505481898784637,-0.06479520350694656,-9.807563781738281,0.0038911558222025633,-0.004926442168653011,-0.0024691391736268997,0.1997431516647339,-0.2760509252548218,0.7277535796165466
1750171178537787187,-0.05951487272977829,-0.0713663175702095,-9.81100845336914,0.004449439700692892,-0.004864053335040808,-0.0022679048124700785,0.20653700828552246,-0.28252652287483215,0.7315444350242615
1750171178600250246,-0.06276774406433105,-0.06488888710737228,-9.809804916381836,0.0036348479334264994,-0.004408611916005611,-0.001962882000952959,0.2034684121608734,-0.2841651737689972,0.7447919249534607
1750171178647769735,-0.06143274903297424,-0.07103942334651947,-9.811480522155762,0.0034630538430064917,-0.004603170324116945,-0.002174698980525136,0.19648078083992004,-0.2842511236667633,0.7376192808151245
1750171178685183087,-0.06127582862973213,-0.06597954034805298,-9.809775352478027,0.0036871519405394793,-0.004964925814419985,-0.0020878533832728863,0.2137594074010849,-0.28205305337905884,0.7454328536987305
1750171178737741336,-0.06850329041481018,-0.06689989566802979,-9.812177658081055,0.00409714737907052,-0.004531548358500004,-0.002120050834491849,0.20694957673549652,-0.28146570920944214,0.745002031326294
1750171178737755974,-0.06558859348297119,-0.06821104139089584,-9.81251049041748,0.003815668635070324,-0.004689759109169245,-0.002132831374183297,0.1964554786682129,-0.2755630910396576,0.7308959364891052
1750171178800255773,-0.06132320314645767,-0.0684342011809349,-9.811193466186523,0.0037333848886191845,-0.0047227609902620316,-0.002659073332324624,0.20028875768184662,-0.2689073383808136,0.741209089756012
1750171178850258743,-0.06343583762645721,-0.07326501607894897,-9.811508178710938,0.004214333835989237,-0.004659201018512249,-0.002452437300235033,0.20351919531822205,-0.2724836468696594,0.7380632162094116
1750171178880209763,-0.06228749081492424,-0.0737178772687912,-9.81505012512207,0.0037679816596210003,-0.00495210662484169,-0.0021111657842993736,0.2037762701511383,-0.27480047941207886,0.7481513619422913
1750171178937809360,-0.06063981354236603,-0.07079719752073288,-9.811677932739258,0.0034413812682032585,-0.004565162118524313,-0.0023808185942471027,0.2134677767753601,-0.2889028787612915,0.7386844158172607
1750171178937823028,-0.061325907707214355,-0.06981134414672852,-9.808754920959473,0.004096035845577717,-0.004375974647700787,-0.0022849729284644127,0.2104053944349289,-0.2700774669647217,0.7384886741638184
1750171179000285630,-0.07078240066766739,-0.06941351294517517,-9.810336112976074,0.00401923106983304,-0.0051041338592767715,-0.0023771533742547035,0.21368040144443512,-0.282436728477478,0.7420576214790344
1750171179050259381,-0.06502775102853775,-0.06923634558916092,-9.812575340270996,0.0037132513243705034,-0.004738715477287769,-0.0024235276505351067,0.19988253712654114,-0.2819349467754364,0.7344537973403931
1750171179080198310,-0.0637664645910263,-0.06787294894456863,-9.812687873840332,0.0034024431370198727,-0.004843884147703648,-0.0024007312022149563,0.2032717764377594,-0.28811725974082947,0.738029420375824
1750171179137821816,-0.0632568746805191,-0.06430590897798538,-9.809595108032227,0.003972325008362532,-0.005141498986631632,-0.002262473339214921,0.2036399394273758,-0.2782731354236603,0.7447728514671326
1750171179137834563,-0.06247066706418991,-0.07118652760982513,-9.808232307434082,0.004282074049115181,-0.005291157867759466,-0.0026410396676510572,0.20710217952728271,-0.2754778563976288,0.7449915409088135
1750171179200237209,-0.060919538140296936,-0.06692459434270859,-9.805546760559082,0.003786176908761263,-0.0046247155405581,-0.00223739561624825,0.20694665610790253,-0.27885591983795166,0.7416214942932129
1750171179250266766,-0.07047516107559204,-0.06758902966976166,-9.812576293945312,0.00393327884376049,-0.004814991261810064,-0.002662614919245243,0.2033289074897766,-0.2850287854671478,0.7380326986312866
1750171179280321056,-0.06500314176082611,-0.06826682388782501,-9.809606552124023,0.004094691947102547,-0.00493022333830595,-0.00242192717269063,0.21391229331493378,-0.2760652005672455,0.74542236328125
1750171179337750611,-0.062037136405706406,-0.0669783353805542,-9.804656982421875,0.003836406162008643,-0.004910910036414862,-0.002225701231509447,0.20679114758968353,-0.2822335362434387,0.7382513880729675
1750171179337763764,-0.05890616402029991,-0.06694161891937256,-9.808653831481934,0.0036523970775306225,-0.004581749439239502,-0.001880893250927329,0.20334477722644806,-0.2791401147842407,0.7346725463867188
1750171179400133796,-0.05885530635714531,-0.06643610447645187,-9.809762001037598,0.0037005904596298933,-0.004373593255877495,-0.002491754014045,0.20361775159835815,-0.2755679190158844,0.7414007186889648
1750171179450282143,-0.06174137070775032,-0.06345997750759125,-9.809823989868164,0.003750318195670843,-0.004885159432888031,-0.0020877958741039038,0.19348470866680145,-0.2802868187427521,0.7474815845489502
1750171179480116484,-0.0653981864452362,-0.07101728022098541,-9.80742073059082,0.00389181450009346,-0.004988506436347961,-0.002687435131520033,0.20004113018512726,-0.28454092144966125,0.7411754131317139
1750171179537815547,-0.0642232894897461,-0.06634049862623215,-9.807476043701172,0.003984285984188318,-0.004805044736713171,-0.00249948026612401,0.2098633199930191,-0.2865784466266632,0.7283543348312378
1750171179537828280,-0.06284034252166748,-0.07230164110660553,-9.81419563293457,0.003611066611483693,-0.005324217490851879,-0.0022021960467100143,0.19696293771266937,-0.27160295844078064,0.7443399429321289
1750171179600263713,-0.06192324310541153,-0.06804406642913818,-9.814650535583496,0.00393546000123024,-0.0050759646110236645,-0.001999530242756009,0.22728264331817627,-0.2868906855583191,0.7428988814353943
1750171179647809829,-0.062361814081668854,-0.07753033936023712,-9.813716888427734,0.003834947943687439,-0.0050053782761096954,-0.002802101895213127,0.20367488265037537,-0.27247902750968933,0.7414039969444275
1750171179682739523,-0.05888844281435013,-0.06803811341524124,-9.808568000793457,0.004159747157245874,-0.004656350705772638,-0.0023899043444544077,0.19708657264709473,-0.280002623796463,0.7544306516647339
1750171179737786695,-0.05820346623659134,-0.07474283128976822,-9.8107328414917,0.004053015727549791,-0.004747874103486538,-0.0025692484341561794,0.21023470163345337,-0.2827167510986328,0.7384494543075562
1750171179737802370,-0.06338373571634293,-0.07092003524303436,-9.80899429321289,0.0037047264631837606,-0.0049125212244689465,-0.002422611229121685,0.21039021015167236,-0.27933913469314575,0.7418196797370911
1750171179800260379,-0.06216562166810036,-0.07336432486772537,-9.81595230102539,0.0038485643453896046,-0.004949875641614199,-0.002324469620361924,0.2138366848230362,-0.28243252635002136,0.745398759841919
1750171179850246444,-0.061142340302467346,-0.0762208104133606,-9.810297012329102,0.004169926512986422,-0.0048597813583910465,-0.002500961534678936,0.21052372455596924,-0.27325671911239624,0.7418176531791687
1750171179882692959,-0.061654962599277496,-0.06587572395801544,-9.811810493469238,0.0038208847399801016,-0.004671917296946049,-0.0019120695069432259,0.20031410455703735,-0.28096872568130493,0.7479039430618286
1750171179937752807,-0.06352870911359787,-0.06995752453804016,-9.812137603759766,0.0042136600241065025,-0.004729172680526972,-0.00208675698377192,0.20726743340492249,-0.290051132440567,0.7584174871444702
1750171179937769411,-0.06514005362987518,-0.07216063886880875,-9.810476303100586,0.003926216159015894,-0.005224599502980709,-0.002466593636199832,0.2068486362695694,-0.2825184464454651,0.7382253408432007
1750171180000172826,-0.06724812835454941,-0.06886304914951324,-9.810812950134277,0.003740996588021517,-0.0046585663221776485,-0.0025159576907753944,0.20342755317687988,-0.28811341524124146,0.7413703203201294
1750171180050235881,-0.060513827949762344,-0.06921955943107605,-9.808981895446777,0.004091154783964157,-0.004802684765309095,-0.002173404907807708,0.2001808136701584,-0.29042571783065796,0.7478771209716797
1750171180082626775,-0.06905671954154968,-0.06740084290504456,-9.810163497924805,0.003804548177868128,-0.004750855267047882,-0.0025997990742325783,0.2103397101163864,-0.2943961024284363,0.7485201358795166
1750171180137743089,-0.06599056720733643,-0.06689120084047318,-9.814515113830566,0.003951662220060825,-0.005243308842182159,-0.002091178437694907,0.21376091241836548,-0.2888011038303375,0.7453751564025879
1750171180137755183,-0.06538084149360657,-0.06831236183643341,-9.815126419067383,0.0037336747627705336,-0.004540332593023777,-0.0023448732681572437,0.2038051187992096,-0.26378557085990906,0.7380208969116211
1750171180200175098,-0.06546590477228165,-0.06611064821481705,-9.808781623840332,0.003599731018766761,-0.004936533514410257,-0.0024030162021517754,0.19978737831115723,-0.2915818989276886,0.7344088554382324
1750171180250235669,-0.06540876626968384,-0.06644856929779053,-9.812015533447266,0.004078427795320749,-0.004951950162649155,-0.0021660930942744017,0.21681426465511322,-0.2930506765842438,0.7354860901832581
1750171180282707418,-0.06457237899303436,-0.06783244013786316,-9.81241226196289,0.00394686171784997,-0.00441187247633934,-0.0027348282746970654,0.2000412791967392,-0.2879146933555603,0.7411462664604187
1750171180337805736,-0.06520453840494156,-0.06525391340255737,-9.810905456542969,0.0037632579915225506,-0.004894472658634186,-0.0023465848062187433,0.2105429321527481,-0.27335086464881897,0.7418090105056763
1750171180337818229,-0.05858312547206879,-0.07219316065311432,-9.814037322998047,0.003979656845331192,-0.004786878824234009,-0.002088499255478382,0.20729300379753113,-0.26967957615852356,0.7449639439582825
1750171180400252650,-0.060209646821022034,-0.06549724191427231,-9.812616348266602,0.0039596837013959885,-0.004645061679184437,-0.0021285992115736008,0.20665514469146729,-0.28908073902130127,0.7348430156707764
1750171180450313290,-0.06645244359970093,-0.06854186952114105,-9.809537887573242,0.003791296388953924,-0.0049878014251589775,-0.0023274924606084824,0.19641661643981934,-0.2854940891265869,0.7308240532875061
1750171180482653062,-0.06291721761226654,-0.0714438334107399,-9.810640335083008,0.003768741153180599,-0.0049111018888652325,-0.002386123174801469,0.20688697695732117,-0.28270795941352844,0.738207995891571
1750171180537733133,-0.05913403630256653,-0.06975684314966202,-9.813403129577637,0.003434710670262575,-0.004882718436419964,-0.0022506993263959885,0.2239874005317688,-0.2751988470554352,0.7359278798103333
1750171180537745791,-0.06352002918720245,-0.06640378385782242,-9.811552047729492,0.003847616259008646,-0.004927846137434244,-0.002467299113050103,0.20342443883419037,-0.28550320863723755,0.7379892468452454
1750171180600218620,-0.06622020900249481,-0.06774204224348068,-9.81088638305664,0.004229570738971233,-0.004623916931450367,-0.0023762218188494444,0.21402820944786072,-0.27663466334342957,0.7453711628913879
1750171180647738194,-0.06393805146217346,-0.06631682068109512,-9.811210632324219,0.0036314385943114758,-0.00511883944272995,-0.0023209284991025925,0.20362432301044464,-0.29091018438339233,0.7480756044387817
1750171180685181490,-0.06378617882728577,-0.06730777025222778,-9.811761856079102,0.0031248710583895445,-0.004772452171891928,-0.0022306093014776707,0.2140694260597229,-0.2794352173805237,0.7487350702285767
1750171180737778051,-0.06007704883813858,-0.0677655041217804,-9.815890312194824,0.004094724077731371,-0.004887780640274286,-0.002254249295219779,0.20026959478855133,-0.2789325416088104,0.7411302328109741
1750171180737793533,-0.06392358243465424,-0.06963415443897247,-9.810493469238281,0.003537871642038226,-0.004888942930847406,-0.0024086027406156063,0.21350803971290588,-0.29584288597106934,0.7386083602905273
1750171180800174835,-0.06507866829633713,-0.06688520312309265,-9.807882308959961,0.0038994464557617903,-0.004602442495524883,-0.0022887096274644136,0.20353560149669647,-0.27671515941619873,0.7346144318580627
1750171180850145218,-0.059787869453430176,-0.07112397998571396,-9.809667587280273,0.0038297781720757484,-0.004831560887396336,-0.0025271063204854727,0.20342129468917847,-0.2828933596611023,0.7346078157424927
