timestamp,ax,ay,az,wx,wy,wz,mx,my,mz
1757673938826284828,0.30318328738212585,0.18767346441745758,-9.809120178222656,0.002237993525341153,-0.003568300511687994,-0.001112474245019257,0.42343032360076904,0.11047203093767166,-0.1050269678235054
1757673938826302818,0.31878969073295593,0.18302257359027863,-9.815250396728516,0.004016993101686239,-0.003542667953297496,-0.0026273562107235193,0.42343032360076904,0.11047203093767166,-0.1050269678235054
1757673938829245358,0.30315184593200684,0.19484886527061462,-9.805057525634766,0.004260816145688295,-0.0025993671733886003,-0.0024193509016186,0.42343032360076904,0.11047203093767166,-0.1050269678235054
1757673938829258080,0.3124672770500183,0.1957349181175232,-9.806985855102539,0.0018812748603522778,-0.0040608667768538,-0.0028389005456119776,0.42343032360076904,0.11047203093767166,-0.1050269678235054
1757673938839168013,0.30458754301071167,0.17396262288093567,-9.809161186218262,0.003442806890234351,-0.0044328682124614716,-0.0021473916713148355,0.42343032360076904,0.11047203093767166,-0.1050269678235054
1757673938849249679,0.2838701009750366,0.17596761882305145,-9.81303882598877,0.0034406918566673994,-0.005235909949988127,-0.002271579811349511,0.42343032360076904,0.11047203093767166,-0.1050269678235054
1757673938849261587,0.29058822989463806,0.17169500887393951,-9.815352439880371,0.004352916497737169,-0.004968786612153053,-0.00218026852235198,0.42403432726860046,0.11224668473005295,-0.08434810489416122
1757673938856643053,0.2913338243961334,0.17842620611190796,-9.80870246887207,0.0032620951533317566,-0.0047071282751858234,-0.0027328450232744217,0.42403432726860046,0.11224668473005295,-0.08434810489416122
1757673938856656155,0.2925258278846741,0.17686322331428528,-9.823697090148926,0.0033839289098978043,-0.0033924910239875317,-0.0012278544018045068,0.42403432726860046,0.11224668473005295,-0.08434810489416122
1757673938866720875,0.30321747064590454,0.1834355592727661,-9.8206148147583,0.002521849237382412,-0.00289930053986609,-0.0019572076853364706,0.4274081289768219,0.10562507063150406,-0.08413399755954742
1757673938866733083,0.3015298843383789,0.20120763778686523,-9.805051803588867,0.003934939857572317,-0.0023812458384782076,-0.0029874369502067566,0.4274081289768219,0.10562507063150406,-0.08413399755954742
1757673938874228763,0.30597737431526184,0.19045256078243256,-9.79982852935791,0.002384928287938237,-0.0037683448754251003,-0.001561919809319079,0.4274081289768219,0.10562507063150406,-0.08413399755954742
1757673938874242642,0.3047051429748535,0.20212145149707794,-9.80517292022705,0.0039162482134997845,-0.0027169135864824057,-0.0029527051374316216,0.4274081289768219,0.10562507063150406,-0.08413399755954742
1757673938884246141,0.3150651156902313,0.20131869614124298,-9.808314323425293,0.002638608915731311,-0.004589769523590803,-0.0033891485072672367,0.4303792715072632,0.09782049059867859,-0.09770569205284119
1757673938894246815,0.30893799662590027,0.1894892156124115,-9.806340217590332,0.002796716522425413,-0.005521823652088642,-0.0026597038377076387,0.4303792715072632,0.09782049059867859,-0.09770569205284119
1757673938894261413,0.3072059154510498,0.1853632628917694,-9.807494163513184,0.004044263157993555,-0.0033597887959331274,-0.001089619123376906,0.4303792715072632,0.09782049059867859,-0.09770569205284119
1757673938904215849,0.28744322061538696,0.1903696358203888,-9.814598083496094,0.0032555165234953165,-0.003810799214988947,-0.0032322744373232126,0.43065527081489563,0.10759717971086502,-0.0942491888999939
1757673938904227845,0.29068875312805176,0.1911861002445221,-9.81793212890625,0.0038507189601659775,-0.0034106969833374023,-0.0027866705786436796,0.43065527081489563,0.10759717971086502,-0.0942491888999939
1757673938911695309,0.2972639501094818,0.1844952553510666,-9.81814956665039,0.0036615761928260326,-0.0038810817059129477,-0.002410213928669691,0.43065527081489563,0.10759717971086502,-0.0942491888999939
1757673938911708927,0.2925053834915161,0.18079499900341034,-9.819777488708496,0.003611933207139373,-0.0051935166120529175,-0.0021495905239135027,0.43065527081489563,0.10759717971086502,-0.0942491888999939
1757673938921712337,0.2974511682987213,0.17769907414913177,-9.815201759338379,0.002647180575877428,-0.004056172911077738,-0.001289699925109744,0.4236999452114105,0.09930990636348724,-0.08780792355537415
1757673938921724527,0.2934785783290863,0.1931753307580948,-9.810086250305176,0.003634044900536537,-0.004426176194101572,-0.0016757574630901217,0.4236999452114105,0.09930990636348724,-0.08780792355537415
1757673938931712206,0.2986569404602051,0.19237004220485687,-9.808045387268066,0.003211746457964182,-0.0038266845513135195,-0.002056422410532832,0.4236999452114105,0.09930990636348724,-0.08780792355537415
1757673938931725764,0.2899268567562103,0.17836876213550568,-9.808165550231934,0.0019665316212922335,-0.003823008621111512,-0.0016306550242006779,0.4236999452114105,0.09930990636348724,-0.08780792355537415
1757673938939235914,0.2969822883605957,0.17913289368152618,-9.803125381469727,0.0030109835788607597,-0.0045800479128956795,-0.0021456496324390173,0.423758327960968,0.10247039794921875,-0.08780451118946075
1757673938939247890,0.30174288153648376,0.17335791885852814,-9.81802749633789,0.0035650732461363077,-0.004362193401902914,-0.001911786268465221,0.423758327960968,0.10247039794921875,-0.08780451118946075
1757673938949248836,0.30004218220710754,0.1805899292230606,-9.80433177947998,0.0029597575776278973,-0.0030449817422777414,-0.001737076323479414,0.423758327960968,0.10247039794921875,-0.08780451118946075
1757673938956703372,0.2906278371810913,0.17690205574035645,-9.812613487243652,0.0036334439646452665,-0.005629943683743477,-0.0014108172617852688,0.423758327960968,0.10247039794921875,-0.08780451118946075
1757673938956717000,0.30078262090682983,0.19364863634109497,-9.811863899230957,0.003515847958624363,-0.002563728718087077,-0.0032470794394612312,0.423758327960968,0.10247039794921875,-0.08780451118946075
1757673938966706441,0.31338468194007874,0.19156108796596527,-9.815412521362305,0.00292921788059175,-0.002796178450807929,-0.0016911502461880445,0.43027859926223755,0.09752444922924042,-0.10115227103233337
1757673938966718361,0.3048277795314789,0.18607039749622345,-9.800040245056152,0.0031048227101564407,-0.005045277066528797,-0.00276801991276443,0.43027859926223755,0.09752444922924042,-0.10115227103233337
1757673938974238319,0.305385559797287,0.1944161206483841,-9.802653312683105,0.004290042910724878,-0.0039093210361897945,-0.0010396366706117988,0.43027859926223755,0.09752444922924042,-0.10115227103233337
1757673938984253243,0.2982615530490875,0.19874970614910126,-9.818639755249023,0.004258323460817337,-0.0035049684811383486,-0.001897947397083044,0.43027859926223755,0.09752444922924042,-0.10115227103233337
1757673938984265451,0.300150603055954,0.19614677131175995,-9.813016891479492,0.005263167433440685,-0.004304699134081602,-0.0017263765912503004,0.4235993027687073,0.0990142673254013,-0.09125450253486633
1757673938994240360,0.2977350056171417,0.18494054675102234,-9.831241607666016,0.004745346028357744,-0.0029221009463071823,-0.003785888198763132,0.4235993027687073,0.0990142673254013,-0.09125450253486633
1757673938994253901,0.30322569608688354,0.17868371307849884,-9.797332763671875,0.0034554041922092438,-0.0037748434115201235,-0.000732370768673718,0.4235993027687073,0.0990142673254013,-0.09125450253486633
1757673939004188646,0.3019694983959198,0.17313243448734283,-9.821574211120605,0.0028889193199574947,-0.0031303081195801497,-0.003468149108812213,0.4234562814235687,0.1015830710530281,-0.0981440469622612
1757673939004200516,0.29144346714019775,0.1735825389623642,-9.801021575927734,0.001736339763738215,-0.0033064428716897964,-0.0024667216930538416,0.4234562814235687,0.1015830710530281,-0.0981440469622612
1757673939011682249,0.28580740094184875,0.19835112988948822,-9.796737670898438,0.0031583046074956656,-0.0046537178568542,-0.002810067031532526,0.4234562814235687,0.1015830710530281,-0.0981440469622612
1757673939011696460,0.29643604159355164,0.18582676351070404,-9.812956809997559,0.0042625488713383675,-0.004239269997924566,-0.001804963918402791,0.4234562814235687,0.1015830710530281,-0.0981440469622612
1757673939021726929,0.2987196445465088,0.18553462624549866,-9.804100036621094,0.004319244064390659,-0.0031832994427531958,-0.0020525252912193537,0.4303954839706421,0.10384501516819,-0.10114555060863495
1757673939021738909,0.30263370275497437,0.193711519241333,-9.809269905090332,0.0024161306209862232,-0.0038553497288376093,-0.0030687381513416767,0.4303954839706421,0.10384501516819,-0.10114555060863495
1757673939031707957,0.30958092212677,0.17903783917427063,-9.798843383789062,0.002758575836196542,-0.0028659950476139784,-0.0011949288891628385,0.4303954839706421,0.10384501516819,-0.10114555060863495
1757673939031721650,0.31341713666915894,0.17986960709095,-9.821563720703125,0.005311966873705387,-0.0033453311771154404,-0.0028321691788733006,0.4303954839706421,0.10384501516819,-0.10114555060863495
1757673939039207085,0.2978997826576233,0.19709981977939606,-9.810151100158691,0.0020931772887706757,-0.004114892333745956,-0.003123621456325054,0.42365768551826477,0.10217475146055222,-0.09125109016895294
1757673939049229365,0.31027352809906006,0.19328129291534424,-9.814541816711426,0.0035628010518848896,-0.0032050199806690216,-0.0014104880392551422,0.42365768551826477,0.10217475146055222,-0.09125109016895294
1757673939049241277,0.3153907060623169,0.18938763439655304,-9.819530487060547,0.002882102970033884,-0.0035604615695774555,-0.0029401215724647045,0.42365768551826477,0.10217475146055222,-0.09125109016895294
1757673939059203052,0.2984769940376282,0.18513011932373047,-9.812182426452637,0.0028166251722723246,-0.003971257247030735,-0.0033830255270004272,0.42365768551826477,0.10217475146055222,-0.09125109016895294
1757673939059216643,0.3012762665748596,0.17213155329227448,-9.822587966918945,0.003201420186087489,-0.003608606057241559,-0.002452228683978319,0.42365768551826477,0.10217475146055222,-0.09125109016895294
1757673939066713991,0.30463358759880066,0.1644044667482376,-9.816847801208496,0.004291373770684004,-0.004087855573743582,-0.0025611878372728825,0.4237074553966522,0.11144831031560898,-0.09466114640235901
1757673939066725950,0.2957759201526642,0.18115247786045074,-9.825130462646484,0.003438799176365137,-0.004347480367869139,-0.002244620118290186,0.4237074553966522,0.11144831031560898,-0.09466114640235901
1757673939076624780,0.2804409861564636,0.19435566663742065,-9.823319435119629,0.003117260057479143,-0.004058385267853737,-0.0034627902787178755,0.4237074553966522,0.11144831031560898,-0.09466114640235901
1757673939076638034,0.28388404846191406,0.18180860579013824,-9.806604385375977,0.0020273332484066486,-0.003621793817728758,-0.0018956114072352648,0.4237074553966522,0.11144831031560898,-0.09466114640235901
1757673939084222715,0.30445098876953125,0.1767662614583969,-9.81834602355957,0.0030135558918118477,-0.0034803273156285286,-0.002316912868991494,0.42702269554138184,0.10166662931442261,-0.094450443983078
1757673939084234638,0.2936168909072876,0.18273304402828217,-9.816781044006348,0.00472416914999485,-0.005988682620227337,-0.0019837748259305954,0.42702269554138184,0.10166662931442261,-0.094450443983078
1757673939094235132,0.2905740439891815,0.18066871166229248,-9.814291954040527,0.0031671770848333836,-0.0026537973899394274,-0.0018232754664495587,0.42702269554138184,0.10166662931442261,-0.094450443983078
1757673939104191835,0.3056769371032715,0.18328578770160675,-9.820231437683105,0.0014242444885894656,-0.004014329053461552,-0.0020174914970993996,0.42702269554138184,0.10166662931442261,-0.094450443983078
1757673939104204160,0.30279451608657837,0.18104778230190277,-9.81380844116211,0.0029960134997963905,-0.004188298713415861,-0.002413772977888584,0.44141316413879395,0.10155685245990753,-0.07980741560459137
1757673939114194397,0.31348156929016113,0.19281567633152008,-9.815415382385254,0.004836005158722401,-0.0035686229821294546,-0.0029643529560416937,0.44141316413879395,0.10155685245990753,-0.07980741560459137
1757673939114208334,0.31649452447891235,0.18497373163700104,-9.822969436645508,0.002772249048575759,-0.0042619952000677586,-0.0027061449363827705,0.44141316413879395,0.10155685245990753,-0.07980741560459137
1757673939124223812,0.3050530254840851,0.1858532577753067,-9.813560485839844,0.003736032173037529,-0.003350857412442565,-0.0027580372989177704,0.4271395206451416,0.10798639059066772,-0.09444371610879898
1757673939124237553,0.3004041910171509,0.17574374377727509,-9.811595916748047,0.002631062176078558,-0.003681000554934144,-0.0014382118824869394,0.4271395206451416,0.10798639059066772,-0.09444371610879898
1757673939131679851,0.2956558167934418,0.18111982941627502,-9.815629005432129,0.004410021938383579,-0.004531450103968382,-0.0017852737801149487,0.4271395206451416,0.10798639059066772,-0.09444371610879898
1757673939131693694,0.29540306329727173,0.17481020092964172,-9.800374031066895,0.003540917532518506,-0.004915533121675253,-0.0014200652949512005,0.4271395206451416,0.10798639059066772,-0.09444371610879898
1757673939141709216,0.2876099944114685,0.17529705166816711,-9.820333480834961,0.0033689069095999002,-0.0053061810322105885,-0.0025058395694941282,0.4412286579608917,0.09818930178880692,-0.08323108404874802
1757673939141721133,0.27813902497291565,0.1791168749332428,-9.822141647338867,0.003060403512790799,-0.003254081355407834,-0.0015495215775445104,0.4412286579608917,0.09818930178880692,-0.08323108404874802
1757673939149234291,0.27916473150253296,0.18202775716781616,-9.813096046447754,0.0037392601370811462,-0.003918636590242386,-0.0021134759299457073,0.4412286579608917,0.09818930178880692,-0.08323108404874802
1757673939156679896,0.2914956212043762,0.1761004626750946,-9.81505012512207,0.0029635208193212748,-0.003790273331105709,-0.002911874558776617,0.4412286579608917,0.09818930178880692,-0.08323108404874802
1757673939156693612,0.289707213640213,0.1761600375175476,-9.806060791015625,0.002902548760175705,-0.004270066041499376,-0.0027667249087244272,0.4412286579608917,0.09818930178880692,-0.08323108404874802
1757673939166713039,0.2862014174461365,0.1780523657798767,-9.803314208984375,0.0030909348279237747,-0.003346289973706007,-0.001607804442755878,0.43362730741500854,0.09099221229553223,-0.10091156512498856
1757673939166724980,0.29561975598335266,0.18985791504383087,-9.804827690124512,0.002667508088052273,-0.003360006958246231,-0.0006559068569913507,0.43362730741500854,0.09099221229553223,-0.10091156512498856
1757673939174219036,0.2833568751811981,0.19944588840007782,-9.80976390838623,0.0026339422911405563,-0.004700523801147938,-0.0035653181839734316,0.43362730741500854,0.09099221229553223,-0.10091156512498856
1757673939174232635,0.29837000370025635,0.19591552019119263,-9.811297416687012,0.004231809172779322,-0.00427890894934535,-0.002240497153252363,0.43362730741500854,0.09099221229553223,-0.10091156512498856
1757673939184234845,0.30366042256355286,0.17846575379371643,-9.813117027282715,0.004557759966701269,-0.004025786649435759,-0.0020519858226180077,0.41984012722969055,0.10167744010686874,-0.10178486257791519
1757673939194189668,0.3008582293987274,0.1723044365644455,-9.811671257019043,0.003362019546329975,-0.003938748501241207,-0.0012740787351503968,0.41984012722969055,0.10167744010686874,-0.10178486257791519
1757673939194203230,0.30439651012420654,0.1930195540189743,-9.810136795043945,0.0033755539916455746,-0.002823577495291829,-0.002771582920104265,0.41984012722969055,0.10167744010686874,-0.10178486257791519
1757673939204204734,0.30687591433525085,0.1891317218542099,-9.819344520568848,0.003604038618505001,-0.003907619509845972,-0.001964558381587267,0.42702269554138184,0.10166662931442261,-0.094450443983078
1757673939204216724,0.3020857870578766,0.17590968310832977,-9.793546676635742,0.002882532309740782,-0.0045352503657341,-0.0011695141438394785,0.42702269554138184,0.10166662931442261,-0.094450443983078
1757673939211657408,0.28979694843292236,0.18052279949188232,-9.803570747375488,0.00433133402839303,-0.004417505580931902,-0.0016091387951746583,0.42702269554138184,0.10166662931442261,-0.094450443983078
1757673939211671050,0.3016703426837921,0.18863987922668457,-9.810556411743164,0.0033802057150751352,-0.003661137307062745,-0.003346851095557213,0.42702269554138184,0.10166662931442261,-0.094450443983078
1757673939221707173,0.2939610481262207,0.18817830085754395,-9.809578895568848,0.0015725665725767612,-0.003666444681584835,-0.0018655327148735523,0.4271395206451416,0.10798639059066772,-0.09444371610879898
1757673939221719192,0.29915130138397217,0.19213660061359406,-9.814580917358398,0.0027714914176613092,-0.0046456786803901196,-0.0023378387559205294,0.4271395206451416,0.10798639059066772,-0.09444371610879898
1757673939231713759,0.3022593855857849,0.1717376410961151,-9.81000804901123,0.003341575851663947,-0.004670801572501659,-0.0020458882208913565,0.4271395206451416,0.10798639059066772,-0.09444371610879898
1757673939231727433,0.2964784502983093,0.1846476048231125,-9.809131622314453,0.004659680649638176,-0.0035664821043610573,-0.0018344055861234665,0.4271395206451416,0.10798639059066772,-0.09444371610879898
1757673939239232604,0.28588587045669556,0.17612896859645844,-9.813102722167969,0.0027972960378974676,-0.0038339660968631506,-0.0018089503282681108,0.42710721492767334,0.09593774378299713,-0.08756420761346817
1757673939249214872,0.2874351143836975,0.17634233832359314,-9.817373275756836,0.002148639876395464,-0.0035991689655929804,-0.003260734025388956,0.42710721492767334,0.09593774378299713,-0.08756420761346817
1757673939249228304,0.2946711778640747,0.1902032196521759,-9.814817428588867,0.0015722844982519746,-0.004358992911875248,-0.002139322692528367,0.42710721492767334,0.09593774378299713,-0.08756420761346817
1757673939259229210,0.2874903678894043,0.19741882383823395,-9.815520286560059,0.0039034951478242874,-0.003931167535483837,-0.0028173138853162527,0.42710721492767334,0.09593774378299713,-0.08756420761346817
1757673939259242708,0.29296720027923584,0.19670681655406952,-9.805940628051758,0.0029623021837323904,-0.0039448970928788185,-0.0015635245945304632,0.42710721492767334,0.09593774378299713,-0.08756420761346817
1757673939269239902,0.29568877816200256,0.19270503520965576,-9.814005851745605,0.0024680362548679113,-0.004441415425390005,-0.0023506986908614635,0.4302634298801422,0.08270034193992615,-0.09080319851636887
1757673939269251815,0.2945478558540344,0.18019407987594604,-9.812789916992188,0.0018536545103415847,-0.0029932206962257624,-0.0012744463747367263,0.4302634298801422,0.08270034193992615,-0.09080319851636887
1757673939276716625,0.290120929479599,0.18186846375465393,-9.81964111328125,0.0033065478783100843,-0.003633590182289481,-0.0017393622547388077,0.4302634298801422,0.08270034193992615,-0.09080319851636887
1757673939276730319,0.29348596930503845,0.17484018206596375,-9.813837051391602,0.0035474251490086317,-0.004711964633315802,-0.002312268130481243,0.4302634298801422,0.08270034193992615,-0.09080319851636887
1757673939286697113,0.30615097284317017,0.17450383305549622,-9.814183235168457,0.0014223342295736074,-0.004580952692776918,-0.002419725526124239,0.4377543330192566,0.10451526939868927,-0.08689157664775848
1757673939286708984,0.3151201605796814,0.18984466791152954,-9.818446159362793,0.0020846077241003513,-0.004467801656574011,-0.0027561141178011894,0.4377543330192566,0.10451526939868927,-0.08689157664775848
1757673939294234787,0.2964555025100708,0.19073234498500824,-9.814613342285156,0.0020462798420339823,-0.0036353229079395533,-0.0021478149574249983,0.4377543330192566,0.10451526939868927,-0.08689157664775848
1757673939304211646,0.30693870782852173,0.18312545120716095,-9.80746841430664,0.0031281651463359594,-0.0053054033778607845,-0.002594215329736471,0.4377543330192566,0.10451526939868927,-0.08689157664775848
1757673939304223772,0.31361958384513855,0.17159022390842438,-9.81557846069336,0.003028694074600935,-0.002896447665989399,-0.0022489321418106556,0.4378126859664917,0.10767494887113571,-0.08688826113939285
1757673939314243765,0.29031121730804443,0.18037232756614685,-9.810243606567383,0.0027101170271635056,-0.003946793265640736,-0.0030367474537342787,0.4378126859664917,0.10767494887113571,-0.08688826113939285
1757673939314257349,0.2747385501861572,0.18387436866760254,-9.791077613830566,0.003107015509158373,-0.005118727684020996,-0.001484131091274321,0.4378126859664917,0.10767494887113571,-0.08688826113939285
1757673939324234354,0.29746007919311523,0.17296811938285828,-9.812518119812012,0.002136028138920665,-0.004927000962197781,-0.002492906991392374,0.4339616596698761,0.1039285808801651,-0.09745173901319504
1757673939324247802,0.2918798625469208,0.1806148886680603,-9.81446361541748,0.0035575018264353275,-0.004409832414239645,-0.002599234227091074,0.4339616596698761,0.1039285808801651,-0.09745173901319504
1757673939331691592,0.29938381910324097,0.18745842576026917,-9.817954063415527,0.0035481632221490145,-0.00425615394487977,-0.0026424408424645662,0.4339616596698761,0.1039285808801651,-0.09745173901319504
1757673939331705289,0.31095096468925476,0.18542952835559845,-9.826115608215332,0.0027440255507826805,-0.003625275567173958,-0.00214373623020947,0.4339616596698761,0.1039285808801651,-0.09745173901319504
1757673939341693671,0.3004882037639618,0.17670850455760956,-9.824370384216309,0.0023510234896093607,-0.0037129558622837067,-0.0014538471587002277,0.43039649724960327,0.09504501521587372,-0.0942363291978836
1757673939341705906,0.30762529373168945,0.1946294903755188,-9.807132720947266,0.0037115770392119884,-0.003997593652456999,-0.002434690482914448,0.43039649724960327,0.09504501521587372,-0.0942363291978836
1757673939351712012,0.3024081885814667,0.18600855767726898,-9.811516761779785,0.00401266198605299,-0.004524946678429842,-0.002914954675361514,0.43039649724960327,0.09504501521587372,-0.0942363291978836
1757673939351725719,0.3102344870567322,0.19054731726646423,-9.821375846862793,0.002545047551393509,-0.0045521012507379055,-0.001003420795314014,0.43039649724960327,0.09504501521587372,-0.0942363291978836
1757673939359240521,0.3036683201789856,0.17340080440044403,-9.807768821716309,0.0025689206086099148,-0.004512490704655647,-0.00200474145822227,0.42367514967918396,0.09939927607774734,-0.0877816379070282
1757673939366696295,0.3082515001296997,0.18436716496944427,-9.810450553894043,0.0029377343598753214,-0.0039877379313111305,-0.002850466873496771,0.42367514967918396,0.09939927607774734,-0.0877816379070282
1757673939366708205,0.30280885100364685,0.18817010521888733,-9.801142692565918,0.00400781724601984,-0.004365292377769947,-0.001814755261875689,0.42367514967918396,0.09939927607774734,-0.0877816379070282
1757673939376701634,0.2878737151622772,0.18154706060886383,-9.806326866149902,0.004329643677920103,-0.0035101736430078745,-0.0021836261730641127,0.42367514967918396,0.09939927607774734,-0.0877816379070282
1757673939376715235,0.2956318259239197,0.18851421773433685,-9.816668510437012,0.003624571952968836,-0.004177452996373177,-0.0025407131761312485,0.42367514967918396,0.09939927607774734,-0.0877816379070282
1757673939384177663,0.29925426840782166,0.18577158451080322,-9.80939769744873,0.0038467454724013805,-0.002270815195515752,-0.0023167224135249853,0.4197492301464081,0.08646831661462784,-0.09490885585546494
1757673939384189675,0.28247275948524475,0.18357905745506287,-9.806821823120117,0.0030127062927931547,-0.004177484195679426,-0.001744716428220272,0.4197492301464081,0.08646831661462784,-0.09490885585546494
1757673939394208916,0.29032689332962036,0.1880413293838501,-9.818374633789062,0.0020014625042676926,-0.003995709121227264,-0.0013921824283897877,0.4197492301464081,0.08646831661462784,-0.09490885585546494
1757673939404202655,0.2967774569988251,0.18389640748500824,-9.814632415771484,0.002366747008636594,-0.0052366117015480995,-0.0009701853268779814,0.4197492301464081,0.08646831661462784,-0.09490885585546494
1757673939404214626,0.29669246077537537,0.17447538673877716,-9.812190055847168,0.0026768199168145657,-0.004345622379332781,-0.00260274694301188,0.4199245572090149,0.09594855457544327,-0.09489882737398148
1757673939414180260,0.30631059408187866,0.18130086362361908,-9.817070960998535,0.0025801316369324923,-0.0032579756807535887,-0.0018029386410489678,0.4199245572090149,0.09594855457544327,-0.09489882737398148
1757673939414194054,0.3050006330013275,0.18363046646118164,-9.811739921569824,0.0022804290056228638,-0.0047071524895727634,-0.0016591090243309736,0.4199245572090149,0.09594855457544327,-0.09489882737398148
1757673939424250400,0.2933955788612366,0.18418163061141968,-9.80966854095459,0.0028210366144776344,-0.004292933735996485,-0.0011016994249075651,0.42323005199432373,0.1010807529091835,-0.10501040518283844
1757673939424262595,0.30364105105400085,0.17836016416549683,-9.82000732421875,0.004381776321679354,-0.004057596437633038,-0.002436137292534113,0.42323005199432373,0.1010807529091835,-0.10501040518283844
1757673939431709320,0.3051876127719879,0.18160976469516754,-9.805384635925293,0.001884124823845923,-0.0044463989324867725,-0.0016214509960263968,0.42323005199432373,0.1010807529091835,-0.10501040518283844
1757673939431722943,0.2971538305282593,0.1813795566558838,-9.819167137145996,0.0020022965036332607,-0.004641303326934576,-0.0024887421168386936,0.42323005199432373,0.1010807529091835,-0.10501040518283844
1757673939439225807,0.3160017430782318,0.19578075408935547,-9.807047843933105,0.003813548479229212,-0.004489868879318237,-0.0030202879570424557,0.41627493500709534,0.09279346466064453,-0.0985693484544754
1757673939439237657,0.3234080672264099,0.19264863431453705,-9.806340217590332,0.0024981817696243525,-0.004381977953016758,-0.001773929689079523,0.41627493500709534,0.09279346466064453,-0.0985693484544754
1757673939449154806,0.3173500597476959,0.18152017891407013,-9.814993858337402,0.002866126364096999,-0.0044824606738984585,-0.002135609043762088,0.41627493500709534,0.09279346466064453,-0.0985693484544754
1757673939459248158,0.3000994026660919,0.17112582921981812,-9.797523498535156,0.002605206798762083,-0.0047339485026896,-0.0023716359864920378,0.41627493500709534,0.09279346466064453,-0.0985693484544754
1757673939459261654,0.28727632761001587,0.18308115005493164,-9.80618667602539,0.0028769453056156635,-0.004986036568880081,-0.001795729622244835,0.41627493500709534,0.09279346466064453,-0.0985693484544754
1757673939469198328,0.2882446050643921,0.1850435435771942,-9.811094284057617,0.003061517607420683,-0.004680268466472626,-0.0016880315961316228,0.4267304837703705,0.08586582541465759,-0.09446719288825989
1757673939469210301,0.28472715616226196,0.1883106827735901,-9.796809196472168,0.004571251105517149,-0.006206253077834845,-0.002091342816129327,0.4267304837703705,0.08586582541465759,-0.09446719288825989
1757673939476694413,0.2872443199157715,0.19229786098003387,-9.815855026245117,0.0038330010138452053,-0.0042028422467410564,-0.0015488200588151813,0.4267304837703705,0.08586582541465759,-0.09446719288825989
1757673939476707875,0.2869609296321869,0.17154639959335327,-9.790157318115234,0.0037050533574074507,-0.0038688229396939278,-0.001971256220713258,0.4267304837703705,0.08586582541465759,-0.09446719288825989
1757673939486688376,0.2979770004749298,0.1847018450498581,-9.84300708770752,0.0018119531450793147,-0.003656113985925913,-0.0032340153120458126,0.44132933020591736,0.09848494082689285,-0.07978470623493195
1757673939486700280,0.30321234464645386,0.1837472915649414,-9.782354354858398,0.0027846870943903923,-0.004432362504303455,-0.002111024223268032,0.44132933020591736,0.09848494082689285,-0.07978470623493195
1757673939494177939,0.30120402574539185,0.19002971053123474,-9.818796157836914,0.0022785281762480736,-0.004489479120820761,-0.0018937207059934735,0.44132933020591736,0.09848494082689285,-0.07978470623493195
1757673939494191308,0.3002634048461914,0.17525780200958252,-9.794215202331543,0.003676425199955702,-0.004964881110936403,-0.0017350498819723725,0.44132933020591736,0.09848494082689285,-0.07978470623493195
1757673939504200655,0.30112916231155396,0.17796988785266876,-9.811403274536133,0.001874112174846232,-0.0029872730374336243,-0.0025545733515173197,0.42664602398872375,0.09159430116415024,-0.1013532280921936
1757673939504212576,0.2979050278663635,0.1791604608297348,-9.813443183898926,0.0019436924485489726,-0.0042527518235147,-0.002193471184000373,0.42664602398872375,0.09159430116415024,-0.1013532280921936
1757673939514118294,0.2942432165145874,0.19464565813541412,-9.815211296081543,0.0035000829957425594,-0.0048009720630943775,-0.001240405486896634,0.42664602398872375,0.09159430116415024,-0.1013532280921936
1757673939524230927,0.2975257337093353,0.1805303990840912,-9.821429252624512,0.004460429772734642,-0.003986300900578499,-0.001593268127180636,0.42664602398872375,0.09159430116415024,-0.1013532280921936
1757673939524243148,0.2930270731449127,0.1799948364496231,-9.813369750976562,0.003304362529888749,-0.003885156475007534,-0.0025741758290678263,0.41334477066993713,0.10653401911258698,-0.088463693857193
1757673939534218725,0.30350738763809204,0.18851906061172485,-9.809718132019043,0.0021528371144086123,-0.0049604629166424274,-0.0026355620939284563,0.41334477066993713,0.10653401911258698,-0.088463693857193
1757673939534232366,0.31197524070739746,0.17563724517822266,-9.813138961791992,0.0017157054971903563,-0.0033601829782128334,-0.0030326752457767725,0.41334477066993713,0.10653401911258698,-0.088463693857193
1757673939541697391,0.3043330907821655,0.17263688147068024,-9.811822891235352,0.004957587458193302,-0.004693394061177969,-0.001651083817705512,0.42372599244117737,0.09042094647884369,-0.0809250995516777
1757673939541709335,0.28860029578208923,0.18112072348594666,-9.823963165283203,0.004777118563652039,-0.004577082581818104,-0.0026497053913772106,0.42372599244117737,0.09042094647884369,-0.0809250995516777
1757673939549222443,0.292092889547348,0.19137033820152283,-9.818026542663574,0.0036633850540965796,-0.003420356661081314,-0.0014286753721535206,0.42372599244117737,0.09042094647884369,-0.0809250995516777
1757673939559214168,0.29083630442619324,0.1887887418270111,-9.816890716552734,0.0037062799092382193,-0.00407360028475523,-0.002622828120365739,0.42372599244117737,0.09042094647884369,-0.0809250995516777
1757673939559227987,0.2919653356075287,0.17272399365901947,-9.822576522827148,0.0016422182088717818,-0.003280868288129568,-0.002166978782042861,0.42372599244117737,0.09042094647884369,-0.0809250995516777
1757673939569194580,0.30604031682014465,0.18663182854652405,-9.814428329467773,0.004463317804038525,-0.003635440021753311,-0.0013596826465800405,0.42664602398872375,0.09159430116415024,-0.1013532280921936
1757673939569206512,0.29862505197525024,0.18525470793247223,-9.806583404541016,0.004519518464803696,-0.004244949668645859,-0.0024200701154768467,0.42664602398872375,0.09159430116415024,-0.1013532280921936
1757673939576695892,0.28800246119499207,0.17497184872627258,-9.810201644897461,0.002515607513487339,-0.0029871007427573204,-0.0018965547205880284,0.42664602398872375,0.09159430116415024,-0.1013532280921936
1757673939576709382,0.2940770089626312,0.18278467655181885,-9.810822486877441,0.0037390259094536304,-0.0038896373007446527,-0.002020810032263398,0.42664602398872375,0.09159430116415024,-0.1013532280921936
1757673939586693891,0.3120152950286865,0.18892629444599152,-9.800345420837402,0.0029319035820662975,-0.003838641569018364,-0.002504188334569335,0.42680513858795166,0.09505002200603485,-0.0979035347700119
1757673939586705975,0.31067073345184326,0.18478424847126007,-9.814071655273438,0.0032915393821895123,-0.004721084609627724,-0.0010009559337049723,0.42680513858795166,0.09505002200603485,-0.0979035347700119
1757673939594233668,0.2992745339870453,0.17876434326171875,-9.815055847167969,0.003971309866756201,-0.003734682919457555,-0.00197924324311316,0.42680513858795166,0.09505002200603485,-0.0979035347700119
1757673939594247187,0.2990444600582123,0.18572890758514404,-9.819039344787598,0.004556614439934492,-0.002995738061144948,-0.0018109999364241958,0.42680513858795166,0.09505002200603485,-0.0979035347700119
1757673939604235215,0.3000100553035736,0.1794072389602661,-9.824710845947266,0.0028300872072577477,-0.0020096369553357363,-0.0026748664677143097,0.4268561601638794,0.08607249706983566,-0.0910470113158226
1757673939614092565,0.31267139315605164,0.18283239006996155,-9.809593200683594,0.003007517894729972,-0.0035197583492845297,-0.0017732362030074,0.4268561601638794,0.08607249706983566,-0.0910470113158226
1757673939614111072,0.29761573672294617,0.1858600676059723,-9.80393123626709,0.0043556541204452515,-0.003935061860829592,-0.0021411431953310966,0.4268561601638794,0.08607249706983566,-0.0910470113158226
1757673939624198313,0.2965156137943268,0.19541491568088531,-9.812326431274414,0.0037545552477240562,-0.003136667422950268,-0.0020221073646098375,0.43032076954841614,0.09466041624546051,-0.09770910441875458
1757673939624210501,0.296642541885376,0.18724127113819122,-9.806814193725586,0.0036359464284032583,-0.0045145247131586075,-0.002127117710188031,0.43032076954841614,0.09466041624546051,-0.09770910441875458
1757673939631700787,0.295571893453598,0.1866893321275711,-9.81268310546875,0.002114244271069765,-0.0025005231145769358,-0.0020888210274279118,0.43032076954841614,0.09466041624546051,-0.09770910441875458
1757673939631714245,0.2874670922756195,0.19767053425312042,-9.81197738647461,0.005137994885444641,-0.004395540803670883,-0.001313552143983543,0.43032076954841614,0.09466041624546051,-0.09770910441875458
1757673939641722802,0.30078384280204773,0.1882612407207489,-9.810613632202148,0.003049563616514206,-0.004732298664748669,-0.0017877141945064068,0.4197070300579071,0.08933194726705551,-0.09835191816091537
1757673939641734670,0.29533034563064575,0.18139052391052246,-9.821660041809082,0.004451563116163015,-0.004507690202444792,-0.002022357890382409,0.4197070300579071,0.08933194726705551,-0.09835191816091537
1757673939649184656,0.28669026494026184,0.17883557081222534,-9.813952445983887,0.003011267865076661,-0.004325203597545624,-0.0026414096355438232,0.4197070300579071,0.08933194726705551,-0.09835191816091537
1757673939649196697,0.2956666052341461,0.1875636726617813,-9.813691139221191,0.0031795217655599117,-0.0038009360432624817,-0.0011734977597370744,0.4197070300579071,0.08933194726705551,-0.09835191816091537
1757673939659218080,0.29047444462776184,0.19227269291877747,-9.802867889404297,0.003598664654418826,-0.0027324361726641655,-0.0010585658019408584,0.4197070300579071,0.08933194726705551,-0.09835191816091537
1757673939669242341,0.29241928458213806,0.17892670631408691,-9.81432056427002,0.00358789530582726,-0.0033787295687943697,-0.0029093821067363024,0.4197070300579071,0.08933194726705551,-0.09835191816091537
1757673939669254358,0.2977384626865387,0.17730212211608887,-9.812054634094238,0.002797219669446349,-0.0035445706453174353,-0.001512262155301869,0.41980770230293274,0.08962798863649368,-0.0949055403470993
1757673939679208574,0.3030373454093933,0.19127917289733887,-9.816547393798828,0.0022324419114738703,-0.003909853287041187,-0.0015339315868914127,0.41980770230293274,0.08962798863649368,-0.0949055403470993
1757673939679222113,0.30132248997688293,0.18890205025672913,-9.812854766845703,0.003187180496752262,-0.003564327023923397,-0.002106022322550416,0.41980770230293274,0.08962798863649368,-0.0949055403470993
1757673939689218022,0.29404205083847046,0.1804601401090622,-9.814446449279785,0.004128604661673307,-0.004759533330798149,-0.0024690600112080574,0.4163917899131775,0.09911363571882248,-0.09856262803077698
1757673939689230046,0.29718971252441406,0.18414394557476044,-9.807665824890137,0.004100354388356209,-0.0043558706529438496,-0.002181226620450616,0.4163917899131775,0.09911363571882248,-0.09856262803077698
1757673939696713165,0.28046730160713196,0.18831434845924377,-9.810735702514648,0.0027109370566904545,-0.004490507300943136,-0.0020449766889214516,0.4163917899131775,0.09911363571882248,-0.09856262803077698
1757673939696727406,0.28227025270462036,0.19357410073280334,-9.81581974029541,0.0030711903236806393,-0.004415322095155716,-0.0028260566759854555,0.4163917899131775,0.09911363571882248,-0.09856262803077698
1757673939706712750,0.30510449409484863,0.18358807265758514,-9.808321952819824,0.0030070615466684103,-0.004144715610891581,-0.0013591889292001724,0.4233146011829376,0.09535147249698639,-0.09812436997890472
1757673939706724731,0.308742880821228,0.17694272100925446,-9.820494651794434,0.0030025322921574116,-0.004816240631043911,-0.0029200518038123846,0.4233146011829376,0.09535147249698639,-0.09812436997890472
1757673939714192095,0.30647510290145874,0.19541145861148834,-9.813765525817871,0.004003303125500679,-0.003584741847589612,-0.002145924372598529,0.4233146011829376,0.09535147249698639,-0.09812436997890472
1757673939714205626,0.3056242763996124,0.18049883842468262,-9.803797721862793,0.0027116506826132536,-0.003352934028953314,-0.001308646285906434,0.4233146011829376,0.09535147249698639,-0.09812436997890472
1757673939724228945,0.31193557381629944,0.18926341831684113,-9.806164741516113,0.0025110149290412664,-0.0048790196888148785,-0.001592119107954204,0.42004144191741943,0.10226912796497345,-0.09489210695028305
1757673939734184738,0.3040664494037628,0.18263249099254608,-9.812228202819824,0.0040673441253602505,-0.00504427682608366,-0.0011923564597964287,0.42004144191741943,0.10226912796497345,-0.09489210695028305
1757673939734198372,0.2907881736755371,0.1769896149635315,-9.819098472595215,0.0042948112823069096,-0.004255886655300856,-0.003074495354667306,0.42004144191741943,0.10226912796497345,-0.09489210695028305
1757673939744231836,0.30516520142555237,0.17463229596614838,-9.813995361328125,0.0035902378149330616,-0.004329178482294083,-0.0031473664566874504,0.4234737157821655,0.09880759567022324,-0.09467458724975586
1757673939744243732,0.2841958999633789,0.1717311292886734,-9.787049293518066,0.0017528474563732743,-0.007790572941303253,-0.002944151172414422,0.4234737157821655,0.09880759567022324,-0.09467458724975586
1757673939749149728,0.27330508828163147,0.18204227089881897,-9.832415580749512,0.004354441538453102,0.0003911896201316267,-0.0018789777532219887,0.4234737157821655,0.09880759567022324,-0.09467458724975586
1757673939749161713,0.31012654304504395,0.1702178716659546,-9.807112693786621,0.004411387722939253,-0.0009685877012088895,-0.0016168690053746104,0.4234737157821655,0.09880759567022324,-0.09467458724975586
1757673939759239110,0.31560978293418884,0.1667952984571457,-9.81092643737793,0.0019370722584426403,-0.005758577957749367,-0.002128508174791932,0.4234737157821655,0.09880759567022324,-0.09467458724975586
1757673939769237427,0.3012535870075226,0.18577982485294342,-9.825692176818848,0.0035954085178673267,-0.0060618421994149685,-0.0023312850389629602,0.4234737157821655,0.09880759567022324,-0.09467458724975586
1757673939769249397,0.29036059975624084,0.1812649369239807,-9.783292770385742,0.006151158362627029,-0.004626153502613306,-0.0016142543172463775,0.4306562840938568,0.0987967848777771,-0.08733996748924255
1757673939779255271,0.28903019428253174,0.17857523262500763,-9.827067375183105,0.0034647812135517597,-0.0033171954564750195,-0.0029281065799295902,0.4306562840938568,0.0987967848777771,-0.08733996748924255
1757673939779270556,0.3071586787700653,0.17612700164318085,-9.806157112121582,0.0014276846777647734,-0.0024564687628299,-0.0025474303402006626,0.4306562840938568,0.0987967848777771,-0.08733996748924255
1757673939786693707,0.3057640790939331,0.19564571976661682,-9.805617332458496,0.0016124130925163627,-0.004439419601112604,-0.0027312040328979492,0.423600435256958,0.09021427482366562,-0.08434538543224335
1757673939786705630,0.2838727831840515,0.18723341822624207,-9.818493843078613,0.007468154653906822,-0.005727129057049751,-0.0027203941717743874,0.423600435256958,0.09021427482366562,-0.08434538543224335
1757673939796730365,0.28238168358802795,0.1806817501783371,-9.805027961730957,0.006527558900415897,-0.0033106254413723946,-0.002349087269976735,0.423600435256958,0.09021427482366562,-0.08434538543224335
1757673939796744064,0.2970183491706848,0.16610832512378693,-9.820242881774902,0.0012977634323760867,-0.002816934837028384,-0.0011677612783387303,0.423600435256958,0.09021427482366562,-0.08434538543224335
1757673939804188769,0.28750237822532654,0.18969103693962097,-9.795355796813965,0.0001222970022354275,-0.004550110083073378,-0.0030644426587969065,0.4264121949672699,0.0789535716176033,-0.10136666148900986
1757673939804200694,0.293982595205307,0.19213354587554932,-9.803240776062012,0.0043702623806893826,-0.004059480968862772,-0.0023551974445581436,0.4264121949672699,0.0789535716176033,-0.10136666148900986
1757673939814178565,0.29553064703941345,0.1772090196609497,-9.803837776184082,0.008119141682982445,-0.003994124010205269,-0.0019042794592678547,0.4264121949672699,0.0789535716176033,-0.10136666148900986
1757673939824218229,0.2843324840068817,0.1648114174604416,-9.816835403442383,0.0034208777360618114,-0.0038227098993957043,-0.0031388099305331707,0.4264121949672699,0.0789535716176033,-0.10136666148900986
1757673939824230255,0.2907627820968628,0.16431130468845367,-9.831357955932617,0.00040543804061599076,-0.002666385844349861,-0.0026527210138738155,0.4301204979419708,0.08526872843503952,-0.09769273549318314
1757673939831697063,0.3085620105266571,0.18507139384746552,-9.806411743164062,-0.0002732672728598118,-0.004497810732573271,-0.0012772047193720937,0.4301204979419708,0.08526872843503952,-0.09769273549318314
1757673939831710687,0.3053972125053406,0.19269800186157227,-9.807219505310059,0.007338779047131538,-0.004439954180270433,-0.0022545205429196358,0.4301204979419708,0.08526872843503952,-0.09769273549318314
1757673939841694290,0.30902212858200073,0.17356440424919128,-9.81272029876709,0.006751279812306166,-0.003905057907104492,-0.0037698964588344097,0.4341306686401367,0.09247121959924698,-0.08367947489023209
1757673939841706210,0.3301504850387573,0.17318095266819,-9.826803207397461,0.0014690024545416236,-0.00015600083861500025,-0.0027461813297122717,0.4341306686401367,0.09247121959924698,-0.08367947489023209
1757673939851701917,0.32819706201553345,0.1725415140390396,-9.817391395568848,-0.0009140082984231412,-0.003279247088357806,-0.0023796753957867622,0.4341306686401367,0.09247121959924698,-0.08367947489023209
1757673939851715332,0.31450358033180237,0.19406656920909882,-9.807476997375488,0.0034871548414230347,-0.006051261443644762,-0.002174483146518469,0.4341306686401367,0.09247121959924698,-0.08367947489023209
1757673939859186993,0.30278047919273376,0.19026155769824982,-9.813166618347168,0.007962650619447231,-0.006185679230839014,-0.0033523624297231436,0.42357444763183594,0.09910322725772858,-0.09122811257839203
1757673939859198919,0.29729124903678894,0.18377049267292023,-9.80510425567627,0.005918543785810471,-0.004562997724860907,-0.001434330944903195,0.42357444763183594,0.09910322725772858,-0.09122811257839203
1757673939869206545,0.2891586720943451,0.1724548637866974,-9.826804161071777,0.0016452011186629534,-0.001864193589426577,-0.002334071323275566,0.42357444763183594,0.09910322725772858,-0.09122811257839203
1757673939869218681,0.3056831359863281,0.1905256062746048,-9.806604385375977,5.064271317678504e-05,-0.004074650816619396,-0.002705968916416168,0.42357444763183594,0.09910322725772858,-0.09122811257839203
1757673939879220519,0.3067581355571747,0.1993069052696228,-9.815811157226562,0.003858458250761032,-0.0051436335779726505,-0.0009625122766010463,0.42357444763183594,0.09910322725772858,-0.09122811257839203
1757673939889208542,0.28433912992477417,0.18615254759788513,-9.789329528808594,0.006350663024932146,-0.005051024258136749,-0.0012720873346552253,0.42357444763183594,0.09910322725772858,-0.09122811257839203
1757673939889220602,0.28766104578971863,0.16727401316165924,-9.82070541381836,0.004266837146133184,-0.0029191451612859964,-0.0007287298212759197,0.4305979013442993,0.09563671052455902,-0.08734337985515594
1757673939896619143,0.29071688652038574,0.18667158484458923,-9.815068244934082,0.0010908188996836543,-0.0030499319545924664,-0.0032002704683691263,0.4305979013442993,0.09563671052455902,-0.08734337985515594
1757673939896636238,0.29417648911476135,0.18463917076587677,-9.814786911010742,0.000986288650892675,-0.004038834013044834,-0.0027691039722412825,0.4305979013442993,0.09563671052455902,-0.08734337985515594
1757673939906695743,0.2935260236263275,0.18517763912677765,-9.816034317016602,0.004921031650155783,-0.004799985326826572,-0.0018166250083595514,0.41998302936553955,0.09910863637924194,-0.09489541500806808
1757673939906708532,0.3002247214317322,0.18583352863788605,-9.817672729492188,0.005757633596658707,-0.0037486152723431587,-0.002333541866391897,0.41998302936553955,0.09910863637924194,-0.09489541500806808
1757673939914211185,0.29918789863586426,0.17906996607780457,-9.82214641571045,0.002778855385258794,-0.004509530961513519,-0.001390135264955461,0.41998302936553955,0.09910863637924194,-0.09489541500806808
1757673939914224627,0.29690611362457275,0.17407096922397614,-9.799887657165527,8.34012171253562e-05,-0.003835597774013877,-0.00289975106716156,0.41998302936553955,0.09910863637924194,-0.09489541500806808
1757673939924207752,0.3038868010044098,0.18802417814731598,-9.804481506347656,0.0018900518771260977,-0.00452655553817749,-0.0008700820035301149,0.4166516959667206,0.1028658002614975,-0.09166637063026428
1757673939924219727,0.3004624843597412,0.18416577577590942,-9.793943405151367,0.004847735166549683,-0.004992936737835407,-0.0026568493340164423,0.4166516959667206,0.1028658002614975,-0.09166637063026428
1757673939934246677,0.2992209792137146,0.184363454580307,-9.807981491088867,0.004802641924470663,-0.004512697923928499,-0.0020054257474839687,0.4166516959667206,0.1028658002614975,-0.09166637063026428
1757673939944179500,0.3023340106010437,0.1819154918193817,-9.817132949829102,0.002684888429939747,-0.004216845612972975,-0.0023512798361480236,0.4166516959667206,0.1028658002614975,-0.09166637063026428
1757673939944191360,0.3102284073829651,0.19288749992847443,-9.80609130859375,0.0011428836733102798,-0.0035030629951506853,-0.001760232262313366,0.4169275760650635,0.11264210194349289,-0.0882098600268364
1757673939951690028,0.3105703890323639,0.18447870016098022,-9.813615798950195,0.00452549010515213,-0.004407321568578482,-0.0021527749486267567,0.4169275760650635,0.11264210194349289,-0.0882098600268364
1757673939951703578,0.30139854550361633,0.1832161396741867,-9.813790321350098,0.005404837895184755,-0.004607314243912697,-0.0021995834540575743,0.4169275760650635,0.11264210194349289,-0.0882098600268364
1757673939959195930,0.2993190586566925,0.18057076632976532,-9.821167945861816,0.0038511280436068773,-0.003936419263482094,-0.0019054372096434236,0.41288501024246216,0.0933905616402626,-0.09534380584955215
1757673939959207935,0.2977151870727539,0.17599491775035858,-9.813403129577637,0.0015775893116369843,-0.004049633629620075,-0.0024831495247781277,0.41288501024246216,0.0933905616402626,-0.09534380584955215
1757673939969198258,0.2955932021141052,0.17728492617607117,-9.81070613861084,0.002762156305834651,-0.002729877596721053,-0.0025009335950016975,0.41288501024246216,0.0933905616402626,-0.09534380584955215
1757673939979202632,0.2946947515010834,0.19240081310272217,-9.810724258422852,0.0053527867421507835,-0.004975713323801756,-0.0036761476658284664,0.41288501024246216,0.0933905616402626,-0.09534380584955215
1757673939979216366,0.28552791476249695,0.17547746002674103,-9.803696632385254,0.003130341414362192,-0.0051163178868591785,-0.0012685182737186551,0.41288501024246216,0.0933905616402626,-0.09534380584955215
1757673939989234622,0.28279608488082886,0.17290948331356049,-9.823615074157715,0.0037272137124091387,-0.005795898847281933,-0.0017061835387721658,0.42319658398628235,0.09783089905977249,-0.10504040867090225
1757673939989246579,0.29698580503463745,0.17982760071754456,-9.810683250427246,0.003277077339589596,-0.003935325425118208,-0.002884575631469488,0.42319658398628235,0.09783089905977249,-0.10504040867090225
1757673939996705558,0.30991145968437195,0.18385079503059387,-9.808311462402344,0.0029912933241575956,-0.0031664306297898293,-0.002208251506090164,0.42319658398628235,0.09783089905977249,-0.10504040867090225
1757673939996718941,0.3075419068336487,0.1904851198196411,-9.806458473205566,0.003419478889554739,-0.005177000537514687,-0.002843818161636591,0.42319658398628235,0.09783089905977249,-0.10504040867090225
1757673940006749023,0.30776163935661316,0.19123008847236633,-9.804591178894043,0.004725617356598377,-0.004098429810255766,-0.0026328829117119312,0.4059622287750244,0.0971527174115181,-0.09578216075897217
1757673940006760900,0.3100171685218811,0.18744869530200958,-9.813199043273926,0.003655377309769392,-0.003682585433125496,-0.0015105981146916747,0.4059622287750244,0.0971527174115181,-0.09578216075897217
1757673940014230556,0.3094833493232727,0.18313534557819366,-9.806934356689453,0.0020986092276871204,-0.003984064795076847,-0.0033896788954734802,0.4059622287750244,0.0971527174115181,-0.09578216075897217
1757673940014244162,0.30055898427963257,0.17704610526561737,-9.816506385803223,0.003542699385434389,-0.004606145899742842,-0.002509697340428829,0.4059622287750244,0.0971527174115181,-0.09578216075897217
1757673940024427528,0.31216147541999817,0.18486012518405914,-9.80379867553711,0.0030934487003833055,-0.004696663003414869,-0.0028559593483805656,0.4128689169883728,0.08736603707075119,-0.09190395474433899
1757673940024453112,0.29477956891059875,0.19270657002925873,-9.808904647827148,0.0028046092484146357,-0.005627868697047234,-0.002415398834273219,0.4128689169883728,0.08736603707075119,-0.09190395474433899
1757673940034396135,0.29071611166000366,0.1876523196697235,-9.813447952270508,0.003927387297153473,-0.005050863139331341,-0.002554395468905568,0.4128689169883728,0.08736603707075119,-0.09190395474433899
1757673940044412315,0.2794319689273834,0.1824999898672104,-9.808247566223145,0.003006058745086193,-0.004886590875685215,-0.0023850295692682266,0.4128689169883728,0.08736603707075119,-0.09190395474433899
1757673940044438431,0.28110945224761963,0.18904219567775726,-9.81998062133789,0.0034618510399013758,-0.00462420005351305,-0.00014958158135414124,0.4272230863571167,0.1110583171248436,-0.09446670860052109
1757673940051894477,0.3023587763309479,0.18533755838871002,-9.80824089050293,0.003944934345781803,-0.003388606011867523,-0.0020764488726854324,0.4272230863571167,0.1110583171248436,-0.09446670860052109
1757673940051922347,0.28919968008995056,0.1920527070760727,-9.80529499053955,0.005995153449475765,-0.00427567632868886,-0.0026944163255393505,0.4272230863571167,0.1110583171248436,-0.09446670860052109
1757673940061885849,0.2975097596645355,0.18414153158664703,-9.809083938598633,0.003693606471642852,-0.005305933300405741,-0.002453272230923176,0.4267953038215637,0.10996350646018982,-0.10822591930627823
1757673940061911379,0.297846257686615,0.19120080769062042,-9.807101249694824,0.0035976495128124952,-0.0027187878731638193,-0.0015039177378639579,0.4267953038215637,0.10996350646018982,-0.10822591930627823
1757673940069555477,0.30108413100242615,0.192031592130661,-9.808284759521484,0.004352203570306301,-0.003358545247465372,-0.0026468541473150253,0.4267953038215637,0.10996350646018982,-0.10822591930627823
1757673940069583009,0.30689775943756104,0.18565863370895386,-9.804064750671387,0.0037634135223925114,-0.004003535956144333,-0.0025263691786676645,0.4267953038215637,0.10996350646018982,-0.10822591930627823
1757673940079413712,0.307134747505188,0.17842933535575867,-9.803647994995117,0.003472078824415803,-0.0037412766832858324,-0.0024892007932066917,0.42732474207878113,0.10255396366119385,-0.08411110937595367
1757673940089356577,0.2950003743171692,0.18090702593326569,-9.805668830871582,0.004224050790071487,-0.004341163672506809,-0.0028734863735735416,0.42732474207878113,0.10255396366119385,-0.08411110937595367
1757673940089383494,0.2879413366317749,0.17444516718387604,-9.814738273620605,0.0035498333163559437,-0.0045280177146196365,-0.0025493470020592213,0.42732474207878113,0.10255396366119385,-0.08411110937595367
1757673940099327545,0.29378920793533325,0.16022540628910065,-9.808384895324707,0.0009662474039942026,-0.004389080218970776,-0.002518814755603671,0.42732474207878113,0.10255396366119385,-0.08411110937595367
1757673940099353945,0.2933368980884552,0.1812840849161148,-9.815871238708496,0.0037714713253080845,-0.0040159402415156364,-0.002871750621125102,0.42732474207878113,0.10255396366119385,-0.08411110937595367
1757673940109371216,0.2985199987888336,0.19520574808120728,-9.806025505065918,0.003780570114031434,-0.0040052966214716434,-0.002072803908959031,0.4235246181488037,0.08982925862073898,-0.0878179520368576
1757673940109396122,0.29307910799980164,0.18394310772418976,-9.818292617797852,0.004118451848626137,-0.005228172522038221,-0.0019515295280143619,0.4235246181488037,0.08982925862073898,-0.0878179520368576
1757673940116692903,0.2974450886249542,0.18045158684253693,-9.811751365661621,0.002916643163189292,-0.0048552327789366245,-0.0013845126377418637,0.4235246181488037,0.08982925862073898,-0.0878179520368576
1757673940116713599,0.2883337438106537,0.18407531082630157,-9.817914962768555,0.0028919235337525606,-0.0049318126402795315,-0.002196437446400523,0.4235246181488037,0.08982925862073898,-0.0878179520368576
1757673940126871757,0.30568739771842957,0.19313481450080872,-9.819287300109863,0.0029195481911301613,-0.003524838015437126,-0.0022235484793782234,0.4306400716304779,0.09277226775884628,-0.08390031009912491
1757673940126898033,0.2833229601383209,0.19089250266551971,-9.803900718688965,0.00477304682135582,-0.004323238972574472,-0.002102100057527423,0.4306400716304779,0.09277226775884628,-0.08390031009912491
1757673940134398288,0.2876346707344055,0.1799069195985794,-9.810410499572754,0.004031248856335878,-0.002620603423565626,-0.0020026995334774256,0.4306400716304779,0.09277226775884628,-0.08390031009912491
1757673940134427277,0.2938392460346222,0.18660250306129456,-9.815512657165527,0.003274532500654459,-0.003978954162448645,-0.002631580922752619,0.4306400716304779,0.09277226775884628,-0.08390031009912491
1757673940144404623,0.30300357937812805,0.18450981378555298,-9.816351890563965,0.002754075685516,-0.0028656136710196733,-0.0017580169951543212,0.43052220344543457,0.09525210410356522,-0.09081615507602692
1757673940151882213,0.3008609116077423,0.1868942528963089,-9.806716918945312,0.0025611170567572117,-0.0038798609748482704,-0.0016781663289293647,0.43052220344543457,0.09525210410356522,-0.09081615507602692
1757673940151910910,0.2890414893627167,0.19025295972824097,-9.802068710327148,0.0030921162106096745,-0.004863580223172903,-0.0015536084538325667,0.43052220344543457,0.09525210410356522,-0.09081615507602692
1757673940159372589,0.29102784395217896,0.18676535785198212,-9.80373477935791,0.003505669068545103,-0.004336724057793617,-0.0013486472889780998,0.4276418685913086,0.118265800178051,-0.08412055671215057
1757673940159398658,0.3074118494987488,0.18191002309322357,-9.817298889160156,0.004400991834700108,-0.004687292035669088,-0.0010786526836454868,0.4276418685913086,0.118265800178051,-0.08412055671215057
1757673940169395487,0.2963670492172241,0.1789979189634323,-9.805397033691406,0.0030968051869422197,-0.002749378327280283,-0.0017631551017984748,0.4276418685913086,0.118265800178051,-0.08412055671215057
1757673940179380199,0.2941734194755554,0.18019264936447144,-9.801922798156738,0.0022752757649868727,-0.0032030583824962378,-0.002397748176008463,0.4276418685913086,0.118265800178051,-0.08412055671215057
1757673940179408467,0.30040037631988525,0.19391679763793945,-9.81230354309082,0.0029599193949252367,-0.005276493262499571,-0.0030496614053845406,0.4276418685913086,0.118265800178051,-0.08412055671215057
1757673940189381388,0.30617067217826843,0.19306844472885132,-9.811965942382812,0.0037145446985960007,-0.003146589733660221,-0.002587241120636463,0.4236155152320862,0.10503878444433212,-0.09469425678253174
1757673940189407033,0.31197530031204224,0.18979260325431824,-9.804546356201172,0.0032359310425817966,-0.00389119959436357,-0.0024279900826513767,0.4236155152320862,0.10503878444433212,-0.09469425678253174
1757673940196882153,0.2973726689815521,0.19068989157676697,-9.805327415466309,0.0023038191720843315,-0.004796538036316633,-0.0013119194190949202,0.4236155152320862,0.10503878444433212,-0.09469425678253174
1757673940196910479,0.3003655970096588,0.17720064520835876,-9.821449279785156,0.003660904010757804,-0.004871227312833071,-0.0019015108700841665,0.4236155152320862,0.10503878444433212,-0.09469425678253174
1757673940206898527,0.30451634526252747,0.18531444668769836,-9.822845458984375,0.002979795914143324,-0.004157135728746653,-0.002658659592270851,0.4236999452114105,0.09930990636348724,-0.08780792355537415
1757673940206923968,0.29149487614631653,0.1843392550945282,-9.815747261047363,0.0030298233032226562,-0.003909658640623093,-0.0021459562703967094,0.4236999452114105,0.09930990636348724,-0.08780792355537415
1757673940214372507,0.28659704327583313,0.18728001415729523,-9.815778732299805,0.002947897184640169,-0.0045455452054739,-0.0004383933555800468,0.4236999452114105,0.09930990636348724,-0.08780792355537415
1757673940214400746,0.2815348505973816,0.1884010285139084,-9.796544075012207,0.0030765223782509565,-0.004171340726315975,-0.003218218917027116,0.4236999452114105,0.09930990636348724,-0.08780792355537415
1757673940224375516,0.2812083065509796,0.17883236706256866,-9.810531616210938,0.0031161559745669365,-0.002760570030659437,-0.0020175608806312084,0.4201507866382599,0.0964512825012207,-0.08803216367959976
1757673940224400253,0.2814123034477234,0.1772274225950241,-9.811789512634277,0.002249733079224825,-0.0034991377033293247,-0.002576183993369341,0.4201507866382599,0.0964512825012207,-0.08803216367959976
1757673940234382159,0.2791879177093506,0.1909337043762207,-9.806998252868652,0.0026431961450725794,-0.0043174829334020615,-0.002210488310083747,0.4201507866382599,0.0964512825012207,-0.08803216367959976
1757673940244336345,0.2998706102371216,0.1924338936805725,-9.812162399291992,0.003520956030115485,-0.003063086187466979,-0.0009331045439466834,0.4201507866382599,0.0964512825012207,-0.08803216367959976
1757673940244361028,0.30962809920310974,0.18089985847473145,-9.799034118652344,0.004232697654515505,-0.004284735303372145,-0.002959339413791895,0.4198065400123596,0.09842798858880997,-0.10181476175785065
1757673940251871260,0.3036496043205261,0.19101868569850922,-9.805098533630371,0.0021710596047341824,-0.0042783599346876144,-0.0009354107896797359,0.4198065400123596,0.09842798858880997,-0.10181476175785065
1757673940251899480,0.3008424639701843,0.18682660162448883,-9.816104888916016,0.003204946406185627,-0.005143871530890465,-0.0016835702117532492,0.4198065400123596,0.09842798858880997,-0.10181476175785065
1757673940261877475,0.29807913303375244,0.18427647650241852,-9.800806045532227,0.004390374291688204,-0.004527893383055925,-0.0022206201683729887,0.4236999452114105,0.09930990636348724,-0.08780792355537415
1757673940261903271,0.30857357382774353,0.179703488945961,-9.807345390319824,0.003229962894693017,-0.0029521193355321884,-0.002925062784925103,0.4236999452114105,0.09930990636348724,-0.08780792355537415
1757673940271862048,0.2928503751754761,0.17228981852531433,-9.813285827636719,0.0034311730414628983,-0.0046891113743186,-0.001212064060382545,0.4236999452114105,0.09930990636348724,-0.08780792355537415
1757673940271890451,0.3054383397102356,0.19256021082401276,-9.817068099975586,0.0027279399801045656,-0.005139580927789211,-0.003787414403632283,0.4236999452114105,0.09930990636348724,-0.08780792355537415
1757673940279407166,0.3068547546863556,0.18343931436538696,-9.817578315734863,0.0026682657189667225,-0.0029825412202626467,-0.0027169235982000828,0.4303792715072632,0.09782049059867859,-0.09770569205284119
1757673940289373617,0.29285305738449097,0.17764902114868164,-9.814525604248047,0.003432082710787654,-0.0035927915014326572,-0.0026067194994539022,0.4303792715072632,0.09782049059867859,-0.09770569205284119
1757673940289399823,0.29481199383735657,0.17931410670280457,-9.824918746948242,0.003778628073632717,-0.004852719604969025,-0.0018311410676687956,0.4303792715072632,0.09782049059867859,-0.09770569205284119
1757673940299340395,0.2957336902618408,0.17630983889102936,-9.80567741394043,0.0029612642247229815,-0.005030336324125528,-0.0026279648300260305,0.4303792715072632,0.09782049059867859,-0.09770569205284119
1757673940299367396,0.30375048518180847,0.19301851093769073,-9.814467430114746,0.0029187959153205156,-0.0042219627648591995,-0.002682951046153903,0.4303792715072632,0.09782049059867859,-0.09770569205284119
1757673940309281425,0.29812341928482056,0.17868246138095856,-9.809956550598145,0.003658352419734001,-0.0051923166029155254,-0.001926211640238762,0.4273659884929657,0.10848990827798843,-0.0875769704580307
1757673940309305710,0.2995227873325348,0.1730688214302063,-9.809370994567871,0.004194056149572134,-0.004472703207284212,-0.002062553074210882,0.4273659884929657,0.10848990827798843,-0.0875769704580307
1757673940316779229,0.295543909072876,0.18243883550167084,-9.808721542358398,0.002700512297451496,-0.005357398185878992,-0.002147514605894685,0.4273659884929657,0.10848990827798843,-0.0875769704580307
1757673940316806814,0.2991499602794647,0.1822413057088852,-9.808034896850586,0.0023968317545950413,-0.0038070359732955694,-0.00232433108612895,0.4273659884929657,0.10848990827798843,-0.0875769704580307
1757673940326849607,0.3121696412563324,0.18399597704410553,-9.819623947143555,0.003395632840692997,-0.0037623727694153786,-0.0026284598279744387,0.4236999452114105,0.09930990636348724,-0.08780792355537415
1757673940326875778,0.2997545897960663,0.18015262484550476,-9.812301635742188,0.003289633197709918,-0.0052872332744300365,-0.001968047581613064,0.4236999452114105,0.09930990636348724,-0.08780792355537415
1757673940334366462,0.3077237904071808,0.18348431587219238,-9.804522514343262,0.005293548107147217,-0.004005774389952421,-0.000819795299321413,0.4236999452114105,0.09930990636348724,-0.08780792355537415
1757673940334394617,0.297186940908432,0.18270142376422882,-9.807777404785156,0.00263987691141665,-0.0038600724656134844,-0.0010684621520340443,0.4236999452114105,0.09930990636348724,-0.08780792355537415
1757673940344426975,0.29491469264030457,0.16909125447273254,-9.811286926269531,0.003102009417489171,-0.004162843804806471,-0.0006896216073073447,0.4198649525642395,0.10158848017454147,-0.10181134939193726
1757673940344452192,0.29205870628356934,0.19039778411388397,-9.814461708068848,0.003588420804589987,-0.003120710840448737,-0.002466779202222824,0.4198649525642395,0.10158848017454147,-0.10181134939193726
1757673940351872356,0.3056577742099762,0.17842991650104523,-9.807252883911133,0.0035970069002360106,-0.004804180935025215,-0.0028035861905664206,0.4198649525642395,0.10158848017454147,-0.10181134939193726
1757673940361808034,0.30340853333473206,0.18524836003780365,-9.808395385742188,0.004410364665091038,-0.0031950355041772127,-0.0026549354661256075,0.4198649525642395,0.10158848017454147,-0.10181134939193726
1757673940361833986,0.304813951253891,0.1763501614332199,-9.817156791687012,0.003435818012803793,-0.0038566249422729015,-0.0017971597844734788,0.423532098531723,0.10196807980537415,-0.09467127919197083
1757673940369407175,0.3092694580554962,0.1731175035238266,-9.810131072998047,0.0029578683897852898,-0.00381047697737813,-0.0015046622138470411,0.423532098531723,0.10196807980537415,-0.09467127919197083
1757673940369436220,0.30668336153030396,0.17065970599651337,-9.812382698059082,0.0023586908355355263,-0.0036417082883417606,-0.001489687361754477,0.423532098531723,0.10196807980537415,-0.09467127919197083
1757673940379353980,0.2937360405921936,0.16900934278964996,-9.81312084197998,0.004769584164023399,-0.0031846072524785995,-0.003407947486266494,0.4240182340145111,0.10622215270996094,-0.08090825378894806
1757673940389214081,0.29802149534225464,0.18092450499534607,-9.828821182250977,0.00314526935108006,-0.0039664325304329395,-0.001533558708615601,0.4240182340145111,0.10622215270996094,-0.08090825378894806
1757673940389226497,0.29610201716423035,0.1743003875017166,-9.820241928100586,0.0017344768857583404,-0.0042495508678257465,-0.0016703290166333318,0.4240182340145111,0.10622215270996094,-0.08090825378894806
1757673940399338941,0.28485098481178284,0.17521974444389343,-9.805946350097656,0.0019688517786562443,-0.005131974350661039,-0.0015658072661608458,0.4240182340145111,0.10622215270996094,-0.08090825378894806
1757673940399366181,0.2863999307155609,0.17382711172103882,-9.80981159210205,0.0033953560050576925,-0.0037028829101473093,-0.0007652925560250878,0.4240182340145111,0.10622215270996094,-0.08090825378894806
1757673940409368109,0.2968619167804718,0.1802222579717636,-9.797552108764648,0.0031808759085834026,-0.0044863466173410416,-0.0019268346950411797,0.42397597432136536,0.10908659547567368,-0.08435142040252686
1757673940409393504,0.3084874749183655,0.1801730841398239,-9.809786796569824,0.0033149272203445435,-0.004063441418111324,-0.0011453097686171532,0.42397597432136536,0.10908659547567368,-0.08435142040252686
1757673940416809028,0.3086942434310913,0.1816282421350479,-9.80624771118164,0.0016097103944048285,-0.0023615206591784954,-0.0012542963959276676,0.42397597432136536,0.10908659547567368,-0.08435142040252686
1757673940416836903,0.30097416043281555,0.17399962246418,-9.807449340820312,0.002791532315313816,-0.004135407507419586,-0.0032186582684516907,0.42397597432136536,0.10908659547567368,-0.08435142040252686
1757673940426885206,0.29580560326576233,0.19285108149051666,-9.817259788513184,0.003170920768752694,-0.0040453639812767506,-0.002192507032305002,0.4172718822956085,0.11066456884145737,-0.07442765682935715
1757673940426912041,0.3167295753955841,0.19981761276721954,-9.804937362670898,0.003689209232106805,-0.004918335936963558,-0.0012720907106995583,0.4172718822956085,0.11066456884145737,-0.07442765682935715
1757673940434375158,0.3157603144645691,0.186362162232399,-9.822654724121094,0.0030779410153627396,-0.0036052975337952375,-0.00160536530893296,0.4172718822956085,0.11066456884145737,-0.07442765682935715
1757673940434403255,0.31062471866607666,0.18222789466381073,-9.802465438842773,0.00226953555829823,-0.004316273145377636,-0.0034385689068585634,0.4172718822956085,0.11066456884145737,-0.07442765682935715
1757673940444413108,0.2917712330818176,0.17214840650558472,-9.822914123535156,0.003130352823063731,-0.004890499170869589,-0.0023283862974494696,0.430798202753067,0.10502838343381882,-0.08735954761505127
1757673940454383762,0.29537126421928406,0.17780902981758118,-9.798188209533691,0.0036048665642738342,-0.00376218487508595,-0.0023673970717936754,0.430798202753067,0.10502838343381882,-0.08735954761505127
1757673940454412308,0.29243430495262146,0.17974500358104706,-9.819750785827637,0.003863140009343624,-0.004076466429978609,-0.001891066785901785,0.430798202753067,0.10502838343381882,-0.08735954761505127
1757673940461883467,0.2942999601364136,0.18844464421272278,-9.809196472167969,0.003392260754480958,-0.0048477621749043465,-0.0016907092649489641,0.43401288986206055,0.09495104849338531,-0.0905953198671341
1757673940461909436,0.2973383367061615,0.18272778391838074,-9.814665794372559,0.0023715670686215162,-0.004220307804644108,-0.0023832148872315884,0.43401288986206055,0.09495104849338531,-0.0905953198671341
1757673940471847523,0.28834283351898193,0.2082458883523941,-9.82441520690918,0.0023774378933012486,-0.002585700713098049,-0.0026991949416697025,0.43401288986206055,0.09495104849338531,-0.0905953198671341
1757673940471876021,0.2872849702835083,0.18765975534915924,-9.816591262817383,0.0019166351994499564,-0.0038588549941778183,-0.002032952383160591,0.43401288986206055,0.09495104849338531,-0.0905953198671341
1757673940479408811,0.2792949080467224,0.17898114025592804,-9.812352180480957,0.003263748250901699,-0.004027122166007757,-0.0024365426506847143,0.43029582500457764,0.09474897384643555,-0.09768270701169968
1757673940479432948,0.28874897956848145,0.1895771324634552,-9.799724578857422,0.0016597650246694684,-0.004900025669485331,-0.001760854385793209,0.43029582500457764,0.09474897384643555,-0.09768270701169968
1757673940489381085,0.28965529799461365,0.18456204235553741,-9.793176651000977,0.003182182786986232,-0.003692557802423835,-0.00136253098025918,0.43029582500457764,0.09474897384643555,-0.09768270701169968
1757673940489405971,0.3112579584121704,0.18791937828063965,-9.818816184997559,0.0032565249130129814,-0.004291896242648363,-0.0024878026451915503,0.43029582500457764,0.09474897384643555,-0.09768270701169968
1757673940499352816,0.30198007822036743,0.18161499500274658,-9.824946403503418,0.003027828875929117,-0.0025241514667868614,-0.0019426242215558887,0.43029582500457764,0.09474897384643555,-0.09768270701169968
1757673940509334826,0.32557979226112366,0.17902062833309174,-9.786252975463867,0.0026868812274187803,-0.004246767610311508,-0.0019311256473883986,0.43029582500457764,0.09474897384643555,-0.09768270701169968
1757673940509360030,0.30417314171791077,0.1834278553724289,-9.807930946350098,0.0023415943142026663,-0.004874041303992271,-0.00211992091499269,0.4339868128299713,0.10384001582860947,-0.09747814387083054
1757673940519368888,0.29849714040756226,0.19206441938877106,-9.790422439575195,0.002388931345194578,-0.0036671115085482597,-0.001469266600906849,0.4339868128299713,0.10384001582860947,-0.09747814387083054
1757673940519396590,0.296764612197876,0.17971272766590118,-9.806220054626465,0.004549035336822271,-0.0033364968840032816,-0.0027861602138727903,0.4339868128299713,0.10384001582860947,-0.09747814387083054
1757673940526884884,0.29412707686424255,0.1701485812664032,-9.820145606994629,0.002813684521242976,-0.0034462139010429382,-0.0032158992253243923,0.43033698201179504,0.10068493336439133,-0.10114885866641998
1757673940526912500,0.3046741783618927,0.1679435670375824,-9.792236328125,0.0020372378639876842,-0.003853381611406803,-0.003140350105240941,0.43033698201179504,0.10068493336439133,-0.10114885866641998
1757673940536884662,0.2894926965236664,0.17688590288162231,-9.819195747375488,0.002716735703870654,-0.004423237405717373,-0.0018528002547100186,0.43033698201179504,0.10068493336439133,-0.10114885866641998
1757673940536913250,0.2995242774486542,0.1813969910144806,-9.804902076721191,0.004759947769343853,-0.0032082609832286835,-0.0009426720789633691,0.43033698201179504,0.10068493336439133,-0.10114885866641998
1757673940544474737,0.29849889874458313,0.17594294250011444,-9.814237594604492,0.0031813564710319042,-0.002330407267436385,-0.0015091910026967525,0.4203434884548187,0.1031564474105835,-0.08455277234315872
1757673940544500303,0.29226580262184143,0.17951735854148865,-9.815167427062988,0.0018968833610415459,-0.0045216563157737255,-0.002106279134750366,0.4203434884548187,0.1031564474105835,-0.08455277234315872
1757673940551871566,0.28831809759140015,0.19498923420906067,-9.8138427734375,0.0026794627774506807,-0.0040556564927101135,-0.002151455031707883,0.4203434884548187,0.1031564474105835,-0.08455277234315872
1757673940561866486,0.30131402611732483,0.19052274525165558,-9.813443183898926,0.004933077841997147,-0.004257991909980774,-0.002853602636605501,0.4203434884548187,0.1031564474105835,-0.08455277234315872
1757673940561892283,0.2956431210041046,0.17803709208965302,-9.815816879272461,0.00361220957711339,-0.00231796782463789,-0.0019557455088943243,0.43095722794532776,0.10848451405763626,-0.08390975743532181
1757673940571850288,0.2921215891838074,0.18414153158664703,-9.813305854797363,0.002486529992893338,-0.005226174369454384,-0.0012033921666443348,0.43095722794532776,0.10848451405763626,-0.08390975743532181
1757673940571878219,0.2888253331184387,0.18674789369106293,-9.808892250061035,0.0029383799992501736,-0.0025721436832100153,-0.0018932947423309088,0.43095722794532776,0.10848451405763626,-0.08390975743532181
1757673940579378396,0.3032030165195465,0.19321486353874207,-9.796372413635254,0.002805909374728799,-0.004587035626173019,-0.0021157078444957733,0.42393481731414795,0.10315104573965073,-0.08088546991348267
1757673940579403512,0.30885374546051025,0.19413751363754272,-9.817360877990723,0.003175640944391489,-0.00427652895450592,-0.0018660506466403604,0.42393481731414795,0.10315104573965073,-0.08088546991348267
1757673940589405798,0.3028818964958191,0.1846427321434021,-9.794427871704102,0.0037738110404461622,-0.0037202981766313314,-0.0020759422332048416,0.42393481731414795,0.10315104573965073,-0.08088546991348267
1757673940589431397,0.3127141296863556,0.17469987273216248,-9.8226957321167,0.0033508336637169123,-0.004982618149369955,-0.0025090943090617657,0.42393481731414795,0.10315104573965073,-0.08088546991348267
1757673940599350484,0.31956470012664795,0.18817247450351715,-9.81202507019043,0.0025743443984538317,-0.005422443151473999,-0.0029319708701223135,0.42393481731414795,0.10315104573965073,-0.08088546991348267
1757673940609323340,0.3176049590110779,0.18517737090587616,-9.798206329345703,0.004370660055428743,-0.003821601625531912,-0.0014092097990214825,0.42393481731414795,0.10315104573965073,-0.08088546991348267
1757673940609348787,0.30776992440223694,0.1831834614276886,-9.817978858947754,0.004106555134057999,-0.004420939367264509,-0.0026365320663899183,0.4240516722202301,0.10947079956531525,-0.08087874203920364
1757673940616796414,0.3025452196598053,0.1885867565870285,-9.816125869750977,0.0013075259048491716,-0.0034412832465022802,-0.0022328482009470463,0.4240516722202301,0.10947079956531525,-0.08087874203920364
1757673940616825340,0.28850415349006653,0.18815670907497406,-9.787967681884766,0.0032464792020618916,-0.006729475222527981,-0.0024564159102737904,0.4240516722202301,0.10947079956531525,-0.08087874203920364
1757673940626890819,0.28024569153785706,0.19015757739543915,-9.817298889160156,0.004560982808470726,-0.002168051665648818,-0.0024009349290281534,0.42030131816864014,0.10602089017629623,-0.087995745241642
1757673940626919120,0.3012908101081848,0.17795103788375854,-9.823445320129395,0.005762156564742327,-0.0033825095742940903,-0.0029580944683402777,0.42030131816864014,0.10602089017629623,-0.087995745241642
1757673940634394327,0.29783397912979126,0.17945238947868347,-9.787813186645508,0.002451285719871521,-0.005490720272064209,-0.001853431691415608,0.42030131816864014,0.10602089017629623,-0.087995745241642
1757673940634422859,0.28805360198020935,0.18423490226268768,-9.829870223999023,0.0015891307266429067,-0.005129713099449873,-0.003194925608113408,0.42030131816864014,0.10602089017629623,-0.087995745241642
1757673940644412561,0.2917986810207367,0.19089415669441223,-9.785501480102539,0.0029040358494967222,-0.0037405022885650396,-0.001588158425875008,0.4272824823856354,0.10541839897632599,-0.08755407482385635
1757673940654380530,0.29927510023117065,0.16873684525489807,-9.829014778137207,0.00512961158528924,-0.0024171541444957256,-0.0027978757862001657,0.4272824823856354,0.10541839897632599,-0.08755407482385635
1757673940654408123,0.3044150471687317,0.17194172739982605,-9.802735328674316,0.0034018263686448336,-0.004160741809755564,-0.0021947298664599657,0.4272824823856354,0.10541839897632599,-0.08755407482385635
1757673940664364652,0.3092109262943268,0.17516162991523743,-9.803557395935059,0.0029232222586870193,-0.004175533540546894,-0.002314216224476695,0.42014217376708984,0.10256476700305939,-0.09144553542137146
1757673940664389829,0.3051367700099945,0.1876297891139984,-9.811877250671387,0.003244076855480671,-0.00456613302230835,-0.0027283618692308664,0.42014217376708984,0.10256476700305939,-0.09144553542137146
1757673940671851525,0.30377715826034546,0.1819041222333908,-9.79850959777832,0.004713486880064011,-0.0029428950510919094,-0.002674445742741227,0.42014217376708984,0.10256476700305939,-0.09144553542137146
1757673940671880287,0.3093658685684204,0.18042391538619995,-9.81866455078125,0.004173613153398037,-0.003507544519379735,-0.0020031083840876818,0.42014217376708984,0.10256476700305939,-0.09144553542137146
1757673940681865552,0.3126871883869171,0.1777837872505188,-9.802535057067871,0.0034050489775836468,-0.004596007522195578,-0.001455988036468625,0.4096280634403229,0.10633233189582825,-0.09555119276046753
1757673940681890553,0.3142469525337219,0.19845329225063324,-9.809455871582031,0.002254147082567215,-0.003853892907500267,-0.002761929528787732,0.4096280634403229,0.10633233189582825,-0.09555119276046753
1757673940691901327,0.29808470606803894,0.19526970386505127,-9.799952507019043,0.0029532185290008783,-0.004068139009177685,-0.0014030884485691786,0.4096280634403229,0.10633233189582825,-0.09555119276046753
1757673940691929707,0.30196115374565125,0.17294368147850037,-9.814953804016113,0.004434616304934025,-0.004367733374238014,-0.0035140046384185553,0.4096280634403229,0.10633233189582825,-0.09555119276046753
1757673940699392836,0.29141491651535034,0.15515455603599548,-9.822647094726562,-0.00019029354734811932,-0.00162099814042449,-0.0024860529229044914,0.42708104848861694,0.10482671856880188,-0.09444702416658401
1757673940699418426,0.29120010137557983,0.1692047268152237,-9.817708015441895,-0.007742643356323242,0.003566666040569544,-0.0026702822651714087,0.42708104848861694,0.10482671856880188,-0.09444702416658401
1757673940709374115,0.2991505563259125,0.19241446256637573,-9.82000732421875,-0.012841107323765755,0.0038964480627328157,-0.003294456284493208,0.42708104848861694,0.10482671856880188,-0.09444702416658401
1757673940719217997,0.31481826305389404,0.21505562961101532,-9.807402610778809,-0.004393370822072029,-0.0020945922005921602,-0.0036920460406690836,0.42708104848861694,0.10482671856880188,-0.09444702416658401
1757673940719246781,0.30247703194618225,0.2126488834619522,-9.797052383422852,0.005341364536434412,-0.0037382037844508886,-0.001972469035536051,0.42708104848861694,0.10482671856880188,-0.09444702416658401
1757673940729335192,0.2988097667694092,0.174849733710289,-9.818502426147461,0.006627855356782675,-0.0030506618786603212,-0.0015058406861498952,0.4376697540283203,0.11024374514818192,-0.09377781301736832
1757673940729359746,0.30099210143089294,0.1542493849992752,-9.817533493041992,-0.0015061188023537397,-0.00012210727436468005,-0.0016079731285572052,0.4376697540283203,0.11024374514818192,-0.09377781301736832
1757673940736826674,0.2892512083053589,0.1837906390428543,-9.805609703063965,-0.0059430720284581184,-0.0013963080709800124,-0.0019200736423954368,0.4376697540283203,0.11024374514818192,-0.09377781301736832
1757673940736855297,0.29709866642951965,0.21138565242290497,-9.801966667175293,-0.0021591580007225275,-0.004634174983948469,-0.00274700578302145,0.4376697540283203,0.11024374514818192,-0.09377781301736832
1757673940746862183,0.28881847858428955,0.19587841629981995,-9.803071022033691,0.006820677313953638,-0.003686621319502592,-0.0019219127716496587,0.4238243103027344,0.11776887625455856,-0.09465442597866058
1757673940746887414,0.2912956774234772,0.18351837992668152,-9.818480491638184,0.006467415019869804,-0.002779063768684864,-0.0017466663848608732,0.4238243103027344,0.11776887625455856,-0.09465442597866058
1757673940754319920,0.3051060438156128,0.16313280165195465,-9.806880950927734,0.002187623642385006,-0.0015874995151534677,-0.0020002175588160753,0.4238243103027344,0.11776887625455856,-0.09465442597866058
1757673940764354109,0.26918265223503113,0.16383613646030426,-9.820314407348633,-0.0031093531288206577,0.001915035885758698,-0.0023936748038977385,0.4238243103027344,0.11776887625455856,-0.09465442597866058
1757673940764380471,0.2765399217605591,0.19228343665599823,-9.851215362548828,-0.008126514032483101,0.01453353650867939,-0.0018928373465314507,0.4272824823856354,0.10541839897632599,-0.08755407482385635
1757673940771874113,0.3691512942314148,0.21101555228233337,-9.758166313171387,-0.0041570900939404964,0.0006161889177747071,-0.0024358516093343496,0.4272824823856354,0.10541839897632599,-0.08755407482385635
1757673940771902644,0.31100529432296753,0.21356023848056793,-9.800827980041504,0.009884842671453953,-0.012918541207909584,-0.0016227057203650475,0.4272824823856354,0.10541839897632599,-0.08755407482385635
1757673940781881762,0.2499265819787979,0.1871849149465561,-9.848209381103516,0.011512596160173416,0.00042854674393311143,-0.002445597667247057,0.42729878425598145,0.11144250631332397,-0.09099383652210236
1757673940781906696,0.28940853476524353,0.14337371289730072,-9.833409309387207,-0.0007933813030831516,0.012494398280978203,-0.0032236212864518166,0.42729878425598145,0.11144250631332397,-0.09099383652210236
1757673940791876746,0.34155169129371643,0.17351974546909332,-9.785505294799805,-0.010484959930181503,0.0027550633531063795,-0.0013804204063490033,0.42729878425598145,0.11144250631332397,-0.09099383652210236
1757673940791904961,0.3113362193107605,0.23188987374305725,-9.792951583862305,-0.004508286248892546,-0.007327335420995951,-0.0016960990615189075,0.42729878425598145,0.11144250631332397,-0.09099383652210236
1757673940799390183,0.28392136096954346,0.23855097591876984,-9.818717002868652,0.010123835876584053,-0.004758443683385849,-0.0019438101444393396,0.42682138085365295,0.1010749414563179,-0.10134319961071014
1757673940809354986,0.2864219546318054,0.17619232833385468,-9.823577880859375,0.012317880988121033,0.004571531433612108,-0.0008502887794747949,0.42682138085365295,0.1010749414563179,-0.10134319961071014
1757673940809381619,0.317742258310318,0.13542869687080383,-9.818984985351562,-0.0024694025050848722,0.005231033079326153,-0.00254206545650959,0.42682138085365295,0.1010749414563179,-0.10134319961071014
1757673940819260471,0.3208819329738617,0.1738974004983902,-9.797785758972168,-0.011652437970042229,-0.00183423503767699,-0.0024050606880337,0.42682138085365295,0.1010749414563179,-0.10134319961071014
1757673940819288917,0.2923283576965332,0.23372234404087067,-9.806303024291992,-0.0010715839453041553,-0.004583350382745266,-0.002218827838078141,0.42682138085365295,0.1010749414563179,-0.10134319961071014
1757673940829211766,0.27302005887031555,0.21784205734729767,-9.819356918334961,0.009529659524559975,0.001213153824210167,-0.002066223882138729,0.4308055639266968,0.11716639995574951,-0.09421276301145554
1757673940829224094,0.29987645149230957,0.1844717413187027,-9.821510314941406,0.007372353225946426,0.005188398528844118,-0.0009420582209713757,0.4308055639266968,0.11716639995574951,-0.09421276301145554
1757673940836840719,0.32626375555992126,0.16021864116191864,-9.818892478942871,-0.003793502924963832,0.002038720529526472,-0.002019814681261778,0.4308055639266968,0.11716639995574951,-0.09421276301145554
1757673940836869621,0.291265606880188,0.19053733348846436,-9.836066246032715,-0.012963213957846165,0.0038161417469382286,-0.0007406498189084232,0.4308055639266968,0.11716639995574951,-0.09421276301145554
1757673940844383689,0.2867182195186615,0.19437973201274872,-9.818395614624023,-0.010276279412209988,0.008653552271425724,-0.0009157451568171382,0.4233146011829376,0.09535147249698639,-0.09812436997890472
1757673940844408506,0.31185752153396606,0.1986403614282608,-9.80548095703125,-0.007436216808855534,0.007049123756587505,-0.0012236188631504774,0.4233146011829376,0.09535147249698639,-0.09812436997890472
1757673940854397704,0.31386640667915344,0.21774305403232574,-9.800094604492188,-0.007821626029908657,0.0006258772918954492,-0.0006929919472895563,0.4233146011829376,0.09535147249698639,-0.09812436997890472
1757673940864334700,0.3243626058101654,0.27359768748283386,-9.791728019714355,-0.007748573087155819,-0.005517955403774977,-0.00034089141990989447,0.4233146011829376,0.09535147249698639,-0.09812436997890472
1757673940864360986,0.29531338810920715,0.34571683406829834,-9.815113067626953,-0.010052980855107307,-0.004172416403889656,0.001716912491247058,0.4202589988708496,0.10888452082872391,-0.09143880754709244
1757673940874338097,0.27155646681785583,0.41018393635749817,-9.82574462890625,-0.016311416402459145,0.005527296103537083,0.0076810806058347225,0.4202589988708496,0.10888452082872391,-0.09143880754709244
1757673940874364863,0.2969188690185547,0.6329354047775269,-9.83657169342041,-0.039615076035261154,0.012152701616287231,0.011592183262109756,0.4202589988708496,0.10888452082872391,-0.09143880754709244
1757673940884371629,0.3244720995426178,1.4780969619750977,-9.885375022888184,-0.1388287991285324,0.007191176526248455,0.027819059789180756,0.4203434884548187,0.1031564474105835,-0.08455277234315872
1757673940884396139,0.34921881556510925,3.45651912689209,-9.967543601989746,-0.4007781744003296,-0.014185138046741486,0.09201908856630325,0.4203434884548187,0.1031564474105835,-0.08455277234315872
1757673940891857781,0.37675127387046814,3.9733171463012695,-9.705711364746094,-0.5233617424964905,-0.053065892308950424,0.18552152812480927,0.4203434884548187,0.1031564474105835,-0.08455277234315872
1757673940891885915,0.22651295363903046,3.3136370182037354,-9.344743728637695,-0.1201552152633667,-0.05470481887459755,0.21737828850746155,0.4203434884548187,0.1031564474105835,-0.08455277234315872
1757673940899574535,0.058033522218465805,2.8899028301239014,-9.531564712524414,0.2923452854156494,0.0078988466411829,0.23676861822605133,0.4199569523334503,0.10799719393253326,-0.10177814215421677
1757673940899601295,0.14369730651378632,2.185232400894165,-10.037240982055664,0.3548808991909027,0.0728154331445694,0.2644219398498535,0.4199569523334503,0.10799719393253326,-0.10177814215421677
1757673940909434847,0.5536047220230103,1.7412314414978027,-9.828706741333008,0.06010297313332558,0.022673022001981735,0.30508139729499817,0.4199569523334503,0.10799719393253326,-0.10177814215421677
1757673940909461276,0.500040590763092,0.8105430603027344,-9.716218948364258,-0.059266410768032074,-0.06562364101409912,0.32048922777175903,0.4199569523334503,0.10799719393253326,-0.10177814215421677
1757673940919267195,0.15825103223323822,0.06823281198740005,-9.682389259338379,0.11856971681118011,-0.04898462072014809,0.3172260820865631,0.4199569523334503,0.10799719393253326,-0.10177814215421677
1757673940929352942,0.2037362903356552,-0.3489111065864563,-9.919431686401367,0.24363774061203003,0.011951870284974575,0.3049665689468384,0.4199569523334503,0.10799719393253326,-0.10177814215421677
1757673940929378084,0.42192623019218445,-1.172857642173767,-9.852496147155762,0.17024274170398712,-0.006755542010068893,0.28856223821640015,0.4235905706882477,0.10512816160917282,-0.09466786682605743
1757673940939349725,0.34353405237197876,-1.8196898698806763,-9.878993034362793,0.07914243638515472,-0.02530829980969429,0.25810664892196655,0.4235905706882477,0.10512816160917282,-0.09466786682605743
1757673940939378173,0.28825482726097107,-1.7878549098968506,-9.836433410644531,-0.008688933216035366,-0.02617311105132103,0.22767959535121918,0.4235905706882477,0.10512816160917282,-0.09466786682605743
1757673940946866673,0.24876752495765686,-1.496579647064209,-9.974700927734375,-0.029644576832652092,-0.03239411860704422,0.19350899755954742,0.3997020721435547,0.10585042834281921,-0.07553854584693909
1757673940946892686,0.24543659389019012,-0.7515190243721008,-9.713458061218262,-0.09862811863422394,-0.03384365513920784,0.17917495965957642,0.3997020721435547,0.10585042834281921,-0.07553854584693909
1757673940954405799,0.177181676030159,-0.550948441028595,-10.041873931884766,-0.06219315901398659,-0.007684370037168264,0.16582785546779633,0.3997020721435547,0.10585042834281921,-0.07553854584693909
1757673940964259208,0.31950148940086365,-0.0940856784582138,-9.550626754760742,-0.011243356391787529,0.005778505466878414,0.15927137434482574,0.3997020721435547,0.10585042834281921,-0.07553854584693909
1757673940964284276,0.29607877135276794,-0.38424208760261536,-10.054278373718262,0.022701557725667953,-0.0028522827196866274,0.14905235171318054,0.38233980536460876,0.12256477028131485,-0.08351871371269226
1757673940974386048,0.30118125677108765,0.010085423476994038,-9.68018913269043,-0.009040644392371178,-0.0035628690384328365,0.14645132422447205,0.38233980536460876,0.12256477028131485,-0.08351871371269226
1757673940974414037,0.3176024854183197,0.08699848502874374,-9.920894622802734,-0.0830550268292427,-0.010474867187440395,0.13828955590724945,0.38233980536460876,0.12256477028131485,-0.08351871371269226
1757673940981864122,0.29419299960136414,1.6568204164505005,-10.09209156036377,-0.22912834584712982,-0.0025932195130735636,0.16673554480075836,0.37180957198143005,0.1203078106045723,-0.08418451994657516
1757673940981890876,0.36674243211746216,1.1309212446212769,-9.243048667907715,-0.16506020724773407,-0.0369744747877121,0.19450615346431732,0.37180957198143005,0.1203078106045723,-0.08418451994657516
1757673940991734910,0.14539843797683716,0.5138658285140991,-9.799386978149414,0.24964819848537445,-0.01205384824424982,0.17829927802085876,0.37180957198143005,0.1203078106045723,-0.08418451994657516
1757673940991749561,0.2927147150039673,0.7304025888442993,-9.80954647064209,0.21446490287780762,0.01578395999968052,0.1875385046005249,0.37180957198143005,0.1203078106045723,-0.08418451994657516
1757673940999355868,0.3812500238418579,0.5541503429412842,-10.16334342956543,-0.08718755096197128,-0.00471291970461607,0.20227988064289093,0.3476514220237732,0.1321922093629837,-0.0822739526629448
1757673940999382044,0.3744734525680542,0.5603058934211731,-9.592133522033691,-0.1692539006471634,-0.04199917986989021,0.2109227478504181,0.3476514220237732,0.1321922093629837,-0.0822739526629448
1757673941009396171,0.19841429591178894,0.6262257099151611,-9.844779014587402,0.021375497803092003,-0.027260098606348038,0.21038547158241272,0.3476514220237732,0.1321922093629837,-0.0822739526629448
1757673941009421744,0.2178104817867279,0.9316705465316772,-9.738218307495117,0.10211069881916046,0.006723704747855663,0.2210528701543808,0.3476514220237732,0.1321922093629837,-0.0822739526629448
1757673941019382388,0.3397023677825928,0.7302622199058533,-9.80630111694336,0.02689940854907036,-0.0021145171485841274,0.2336430698633194,0.3476514220237732,0.1321922093629837,-0.0822739526629448
1757673941029344364,0.32209503650665283,0.5668247938156128,-9.836328506469727,0.0018265540711581707,-0.018249934539198875,0.2385309338569641,0.3476514220237732,0.1321922093629837,-0.0822739526629448
1757673941029370112,0.2502810060977936,0.38924846053123474,-9.637112617492676,0.04532221704721451,-0.02086823619902134,0.24498528242111206,0.3411315381526947,0.13713733851909637,-0.06892649829387665
1757673941036841303,0.16376452147960663,0.25018489360809326,-10.089702606201172,0.1289965659379959,0.008449108339846134,0.24077096581459045,0.3411315381526947,0.13713733851909637,-0.06892649829387665
1757673941036869591,0.3269248902797699,0.400942325592041,-9.678680419921875,0.00851872656494379,0.009028295986354351,0.2497292011976242,0.3411315381526947,0.13713733851909637,-0.06892649829387665
1757673941046875685,0.3014313578605652,-0.05516701936721802,-9.938482284545898,-0.036566607654094696,-0.0084119513630867,0.24839217960834503,0.32695141434669495,0.13172611594200134,-0.07326312363147736
1757673941046902256,0.2886325418949127,-0.09592500329017639,-9.709192276000977,0.023293988779187202,-0.013207811862230301,0.2417553812265396,0.32695141434669495,0.13172611594200134,-0.07326312363147736
1757673941054394716,0.26777955889701843,-0.07308248430490494,-9.833770751953125,0.03879141807556152,-0.012233137153089046,0.23992770910263062,0.32695141434669495,0.13172611594200134,-0.07326312363147736
1757673941054422748,0.268806517124176,-0.2579626441001892,-9.756385803222656,0.018804533407092094,-0.006685968488454819,0.2322254478931427,0.32695141434669495,0.13172611594200134,-0.07326312363147736
1757673941064410703,0.2643384039402008,-0.39419975876808167,-9.949390411376953,0.012542466633021832,-0.0025457958690822124,0.2212935835123062,0.30975839495658875,0.13698309659957886,-0.06747093051671982
1757673941074352119,0.32877394556999207,-0.275421142578125,-9.771138191223145,-0.030193597078323364,-0.003385844873264432,0.21598735451698303,0.30975839495658875,0.13698309659957886,-0.06747093051671982
1757673941074380408,0.3023293912410736,-0.23648473620414734,-9.937104225158691,-0.043366607278585434,-0.0060888961888849735,0.20783761143684387,0.30975839495658875,0.13698309659957886,-0.06747093051671982
1757673941084304792,0.3154568374156952,-0.12579476833343506,-9.700390815734863,-0.01918726973235607,-0.007331408094614744,0.19874076545238495,0.29607194662094116,0.1479635387659073,-0.06489775329828262
1757673941084329523,0.2909368872642517,0.2908659279346466,-9.868398666381836,-0.04807984456419945,-0.00965614803135395,0.19936072826385498,0.29607194662094116,0.1479635387659073,-0.06489775329828262
1757673941091852043,0.30849477648735046,0.4832255244255066,-9.861130714416504,-0.07862377166748047,-0.0037277904339134693,0.20641034841537476,0.29607194662094116,0.1479635387659073,-0.06489775329828262
1757673941091880369,0.34756848216056824,0.289802223443985,-9.501755714416504,-0.009769011288881302,-0.011875481344759464,0.20829962193965912,0.29607194662094116,0.1479635387659073,-0.06489775329828262
1757673941101889522,0.23992574214935303,0.2584225535392761,-9.985175132751465,0.08693838864564896,-1.022893138724612e-05,0.20589864253997803,0.2791222929954529,0.1509481817483902,-0.048770032823085785
1757673941101914251,0.33919990062713623,0.24465404450893402,-9.819192886352539,0.038051605224609375,0.003526248037815094,0.20876508951187134,0.2791222929954529,0.1509481817483902,-0.048770032823085785
1757673941111881307,0.35010793805122375,0.12213725596666336,-9.892166137695312,-0.0424778051674366,-0.009334509260952473,0.208306223154068,0.2791222929954529,0.1509481817483902,-0.048770032823085785
1757673941111909932,0.2910168468952179,-0.009413909167051315,-9.78159236907959,-0.02457675337791443,-0.018574541434645653,0.2068137675523758,0.2791222929954529,0.1509481817483902,-0.048770032823085785
1757673941119335703,0.24035459756851196,0.02046656422317028,-9.643342971801758,0.04114482179284096,-0.0032441888470202684,0.20253117382526398,0.2622261643409729,0.16589424014091492,-0.03954668715596199
1757673941119361101,0.24498088657855988,-0.39729195833206177,-9.909077644348145,0.0916033461689949,0.0081934230402112,0.19348293542861938,0.2622261643409729,0.16589424014091492,-0.03954668715596199
1757673941129386589,0.35878482460975647,-0.2839233875274658,-9.772993087768555,0.04159199073910713,-0.003358272835612297,0.18378029763698578,0.2622261643409729,0.16589424014091492,-0.03954668715596199
1757673941139362506,0.328917920589447,-0.30784910917282104,-10.022500991821289,-0.07651537656784058,-0.02995753102004528,0.17851188778877258,0.2622261643409729,0.16589424014091492,-0.03954668715596199
1757673941139390048,0.25155994296073914,-0.13560548424720764,-9.658053398132324,-0.07647416740655899,-0.021909650415182114,0.17218013107776642,0.2622261643409729,0.16589424014091492,-0.03954668715596199
1757673941146855854,0.20066013932228088,0.013104871846735477,-9.890835762023926,-0.04489070922136307,-0.006004428956657648,0.16742382943630219,0.24157428741455078,0.18350215256214142,-0.04085491970181465
1757673941146880947,0.2537575960159302,0.23541174829006195,-9.814408302307129,0.019886327907443047,0.0159749835729599,0.16895686089992523,0.24157428741455078,0.18350215256214142,-0.04085491970181465
1757673941154388617,0.36788418889045715,-0.022780781611800194,-9.662861824035645,0.029753942042589188,-0.007724653463810682,0.16425776481628418,0.24157428741455078,0.18350215256214142,-0.04085491970181465
1757673941164371992,0.293445885181427,0.44840550422668457,-10.07666301727295,-0.006468748673796654,-0.007566671818494797,0.16387881338596344,0.24157428741455078,0.18350215256214142,-0.04085491970181465
1757673941164398108,0.37013912200927734,0.808744490146637,-9.718308448791504,-0.1789780855178833,-0.0261921975761652,0.17805474996566772,0.2243606448173523,0.18884630501270294,-0.035037580877542496
1757673941174321729,0.20333033800125122,0.9070761203765869,-9.907796859741211,-0.13089454174041748,-0.013042914681136608,0.19114750623703003,0.2243606448173523,0.18884630501270294,-0.035037580877542496
1757673941174349573,0.25802966952323914,0.8375399708747864,-9.422821998596191,0.04222477972507477,-0.0008333703735843301,0.1989414244890213,0.2243606448173523,0.18884630501270294,-0.035037580877542496
1757673941181866212,0.20815205574035645,0.7028099298477173,-9.966462135314941,0.1712680160999298,0.020013798028230667,0.20235119760036469,0.22103290259838104,0.1864921897649765,-0.02839399315416813
1757673941181892674,0.39080965518951416,0.6479951739311218,-9.763358116149902,0.04025666043162346,0.006010964047163725,0.21541143953800201,0.22103290259838104,0.1864921897649765,-0.02839399315416813
1757673941191891163,0.3262476623058319,0.38649001717567444,-10.164142608642578,-0.06645520776510239,-0.012573099695146084,0.21795448660850525,0.22103290259838104,0.1864921897649765,-0.02839399315416813
1757673941191919102,0.34475722908973694,0.7092092037200928,-9.490893363952637,-0.13171088695526123,-0.02705889195203781,0.2305871695280075,0.22103290259838104,0.1864921897649765,-0.02839399315416813
1757673941199457836,0.15957969427108765,0.7463830709457397,-9.972949981689453,-0.0249034371227026,-0.009074362926185131,0.23358654975891113,0.20349524915218353,0.1937263011932373,-0.03638438507914543
1757673941199483263,0.28412771224975586,1.0856797695159912,-9.58860969543457,0.03657948970794678,0.004429180640727282,0.2485043853521347,0.20349524915218353,0.1937263011932373,-0.03638438507914543
1757673941209392259,0.320962131023407,0.9637591242790222,-9.845787048339844,0.03248916566371918,-0.005291675683110952,0.2602674663066864,0.20349524915218353,0.1937263011932373,-0.03638438507914543
1757673941209418283,0.2983284890651703,0.6312721371650696,-9.721549034118652,0.05876191705465317,-0.020594414323568344,0.2717958688735962,0.20349524915218353,0.1937263011932373,-0.03638438507914543
1757673941219327674,0.26025494933128357,0.25237128138542175,-9.823196411132812,0.1080581322312355,-0.013420570641756058,0.26960745453834534,0.20349524915218353,0.1937263011932373,-0.03638438507914543
1757673941229355894,0.2994709014892578,0.2222878485918045,-9.88316535949707,0.04644200578331947,-0.005603699013590813,0.27204805612564087,0.20349524915218353,0.1937263011932373,-0.03638438507914543
1757673941229382273,0.3303394019603729,0.223019078373909,-10.060385704040527,-0.0406615287065506,-0.009461347945034504,0.27434056997299194,0.20047836005687714,0.2105065882205963,-0.02967049367725849
1757673941236891877,0.319920152425766,-0.2276277244091034,-9.634773254394531,-0.002213099505752325,-0.017320960760116577,0.27163416147232056,0.20047836005687714,0.2105065882205963,-0.02967049367725849
1757673941236920724,0.2771383225917816,-0.22591836750507355,-9.625215530395508,0.10511220991611481,-0.00535213015973568,0.26076143980026245,0.20047836005687714,0.2105065882205963,-0.02967049367725849
1757673941246838464,0.39189308881759644,-0.11934009939432144,-9.456059455871582,0.061090391129255295,-0.009067941457033157,0.2593466341495514,0.1938154697418213,0.21802091598510742,-0.02321249060332775
1757673941246863984,0.480135053396225,-0.3206765055656433,-9.120585441589355,-0.02256985940039158,-0.061376988887786865,0.2527701258659363,0.1938154697418213,0.21802091598510742,-0.02321249060332775
1757673941254388785,0.40787479281425476,-0.4945933222770691,-9.081621170043945,0.05057365819811821,-0.10219074040651321,0.23943953216075897,0.1938154697418213,0.21802091598510742,-0.02321249060332775
1757673941254417372,0.30263030529022217,-0.46716174483299255,-9.363566398620605,0.15839098393917084,-0.11199922114610672,0.22620616853237152,0.1938154697418213,0.21802091598510742,-0.02321249060332775
1757673941264393057,0.13761378824710846,-1.1670269966125488,-10.58427906036377,0.35556134581565857,-0.07114744186401367,0.19976046681404114,0.18788976967334747,0.2396545708179474,0.0004908923874609172
1757673941264418982,0.19733518362045288,-0.7296220064163208,-10.959599494934082,0.2607220411300659,-0.026007331907749176,0.17954950034618378,0.18788976967334747,0.2396545708179474,0.0004908923874609172
1757673941274395975,0.3656906187534332,-0.17020100355148315,-10.575125694274902,-0.2055831104516983,-0.02557026967406273,0.18914182484149933,0.18788976967334747,0.2396545708179474,0.0004908923874609172
1757673941284302330,0.3151177763938904,-0.12285751849412918,-9.927876472473145,-0.3502084016799927,-0.04807603359222412,0.18961016833782196,0.18788976967334747,0.2396545708179474,0.0004908923874609172
1757673941284327658,0.18647819757461548,0.29884105920791626,-9.241448402404785,-0.10185536742210388,-0.04352213814854622,0.1830293983221054,0.16342954337596893,0.25065165758132935,-0.007937767542898655
1757673941294389179,0.1398264616727829,0.5020434260368347,-9.393258094787598,0.15208035707473755,-0.016055578365921974,0.17979098856449127,0.16342954337596893,0.25065165758132935,-0.007937767542898655
1757673941294417668,0.21125879883766174,0.587260365486145,-10.026809692382812,0.1947076916694641,0.008023574948310852,0.18779180943965912,0.16342954337596893,0.25065165758132935,-0.007937767542898655
1757673941301840716,0.3317509591579437,0.3938029408454895,-10.100907325744629,0.037012729793787,-0.008417382836341858,0.19452670216560364,0.14328162372112274,0.2697381377220154,0.007986167445778847
1757673941301866724,0.27187758684158325,0.5809950828552246,-10.081432342529297,-0.1261114627122879,-0.036195240914821625,0.20103006064891815,0.14328162372112274,0.2697381377220154,0.007986167445778847
1757673941311805792,0.13796034455299377,0.7363756895065308,-9.855687141418457,-0.1377781182527542,-0.03285198658704758,0.21259118616580963,0.14328162372112274,0.2697381377220154,0.007986167445778847
1757673941311833458,0.11881649494171143,1.0144312381744385,-9.475495338439941,-0.03495919331908226,-0.02106146514415741,0.22300522029399872,0.14328162372112274,0.2697381377220154,0.007986167445778847
1757673941319334658,0.13284802436828613,0.9481217861175537,-9.672493934631348,0.08843894302845001,0.0002127445477526635,0.2374829202890396,0.1365179568529129,0.27695605158805847,0.01099760178476572
1757673941319359205,0.2769055664539337,0.45021677017211914,-9.603458404541016,0.1668025702238083,0.006485253572463989,0.23783068358898163,0.1365179568529129,0.27695605158805847,0.01099760178476572
1757673941329395149,0.30512139201164246,0.7810421586036682,-10.15601921081543,0.05520745366811752,-0.0154766496270895,0.24826167523860931,0.1365179568529129,0.27695605158805847,0.01099760178476572
1757673941329421430,0.283877432346344,0.5588772892951965,-10.15261173248291,-0.06636537611484528,-0.028964340686798096,0.2612886428833008,0.1365179568529129,0.27695605158805847,0.01099760178476572
1757673941339370397,0.26783597469329834,0.40940386056900024,-9.476957321166992,-0.07199094444513321,-0.033227648586034775,0.26745593547821045,0.1365179568529129,0.27695605158805847,0.01099760178476572
1757673941349320191,0.21948498487472534,0.4317956268787384,-9.272419929504395,0.03826742619276047,-0.0280909426510334,0.265511691570282,0.1365179568529129,0.27695605158805847,0.01099760178476572
1757673941349345113,0.2617137134075165,0.49101561307907104,-9.492522239685059,0.11076389998197556,-0.031138082966208458,0.2736445665359497,0.13291051983833313,0.27093690633773804,0.010770046152174473
1757673941354382633,0.30905094742774963,0.41700923442840576,-9.675663948059082,0.1293032467365265,-0.04506373777985573,0.27490296959877014,0.13291051983833313,0.27093690633773804,0.010770046152174473
1757673941354410842,0.27586349844932556,0.5190348029136658,-10.185579299926758,0.06373783946037292,-0.06012868881225586,0.2810581624507904,0.13291051983833313,0.27093690633773804,0.010770046152174473
1757673941364400990,0.1775611788034439,0.7711703181266785,-10.270681381225586,-0.0333520732820034,-0.04390869662165642,0.29561400413513184,0.12632381916046143,0.2815258502960205,0.017207209020853043
1757673941374321624,0.2187953144311905,0.2640523612499237,-9.53144359588623,-0.003195366356521845,-0.022553496062755585,0.30106276273727417,0.12632381916046143,0.2815258502960205,0.017207209020853043
1757673941374349315,0.2687300443649292,0.1300622820854187,-9.493587493896484,0.1133590042591095,-0.02528493106365204,0.29691940546035767,0.12632381916046143,0.2815258502960205,0.017207209020853043
1757673941384301747,0.3156842589378357,0.17684464156627655,-9.786839485168457,0.15273833274841309,-0.0411657840013504,0.29439136385917664,0.12690825760364532,0.3131282925605774,0.017240803688764572
1757673941384326270,0.2656618058681488,0.5448955297470093,-10.134844779968262,-0.0069420491345226765,-0.055994126945734024,0.30454179644584656,0.12690825760364532,0.3131282925605774,0.017240803688764572
1757673941391905235,0.20835885405540466,0.41408565640449524,-10.056139945983887,-0.07300170511007309,-0.04476368799805641,0.3106989562511444,0.12690825760364532,0.3131282925605774,0.017240803688764572
1757673941391933188,0.2110183984041214,0.9214213490486145,-9.739941596984863,-0.08981067687273026,-0.04569624364376068,0.319435179233551,0.12690825760364532,0.3131282925605774,0.017240803688764572
1757673941401853656,0.21751932799816132,1.153332233428955,-9.64494800567627,-0.08745231479406357,-0.04819581285119057,0.34297341108322144,0.11683738231658936,0.321323961019516,0.026948371902108192
1757673941401879038,0.2007797807455063,0.9296258687973022,-9.467752456665039,0.08620590716600418,-0.04682169854640961,0.3497132360935211,0.11683738231658936,0.321323961019516,0.026948371902108192
1757673941411860494,0.15744350850582123,0.4782451391220093,-9.559566497802734,0.22211837768554688,-0.03758014738559723,0.35256120562553406,0.11683738231658936,0.321323961019516,0.026948371902108192
1757673941411888507,0.15247280895709991,0.561108410358429,-10.039698600769043,0.17101149260997772,-0.02560657635331154,0.36213162541389465,0.11683738231658936,0.321323961019516,0.026948371902108192
1757673941419388431,0.2860725522041321,0.1575520932674408,-10.071166038513184,0.034435614943504333,-0.037360794842243195,0.36773452162742615,0.11379960924386978,0.33477354049682617,0.03361012041568756
1757673941419412748,0.27683165669441223,0.30685925483703613,-9.832301139831543,-0.07479953020811081,-0.07583054900169373,0.37177008390426636,0.11379960924386978,0.33477354049682617,0.03361012041568756
1757673941429387913,0.1547536998987198,-0.012346315197646618,-9.416474342346191,-0.06025874987244606,-0.07247790694236755,0.37205439805984497,0.11379960924386978,0.33477354049682617,0.03361012041568756
1757673941439359331,0.1889473795890808,0.08333993703126907,-9.248217582702637,0.09972429275512695,-0.06648784875869751,0.3664344549179077,0.11379960924386978,0.33477354049682617,0.03361012041568756
1757673941439388370,0.30546966195106506,-0.1924806833267212,-9.438861846923828,0.1932181715965271,-0.09808263182640076,0.36130234599113464,0.11379960924386978,0.33477354049682617,0.03361012041568756
1757673941449406590,0.2058897316455841,-0.27565306425094604,-10.083291053771973,0.2055666446685791,-0.10967031121253967,0.3533496558666229,0.08968330919742584,0.3437935411930084,0.0389639250934124
1757673941449433678,0.1132291704416275,-0.6375650763511658,-10.11608600616455,0.0757083147764206,-0.08422593027353287,0.348084032535553,0.08968330919742584,0.3437935411930084,0.0389639250934124
1757673941456903558,0.1723155528306961,-0.7935001254081726,-9.678337097167969,-0.05627427250146866,-0.06623014807701111,0.3355337083339691,0.08968330919742584,0.3437935411930084,0.0389639250934124
1757673941456932289,0.305867999792099,-0.6629321575164795,-9.311139106750488,-0.15197449922561646,-0.09111666679382324,0.3265964984893799,0.08968330919742584,0.3437935411930084,0.0389639250934124
1757673941464410434,0.3257940411567688,-1.025854468345642,-9.159686088562012,0.003603462828323245,-0.1375744640827179,0.3067377209663391,0.0907386764883995,0.3648255169391632,0.06310952454805374
1757673941464435473,0.17219091951847076,-1.2522433996200562,-9.31044864654541,0.2234826683998108,-0.15099428594112396,0.27656522393226624,0.0907386764883995,0.3648255169391632,0.06310952454805374
1757673941474407747,0.18579155206680298,-0.6741394400596619,-10.083185195922852,0.09894444048404694,-0.13820651173591614,0.26159605383872986,0.0907386764883995,0.3648255169391632,0.06310952454805374
1757673941484363822,0.2201564759016037,-0.08926458656787872,-10.78447437286377,-0.09745598584413528,-0.14048491418361664,0.2629111409187317,0.0907386764883995,0.3648255169391632,0.06310952454805374
1757673941484390651,0.0928763821721077,0.27536261081695557,-10.234354972839355,-0.31646910309791565,-0.1221538782119751,0.27411413192749023,0.08774152398109436,0.38151946663856506,0.06979839503765106
1757673941494326081,0.16369210183620453,0.6322838664054871,-9.074509620666504,-0.41258421540260315,-0.10406370460987091,0.2833203375339508,0.08774152398109436,0.38151946663856506,0.06979839503765106
1757673941494355558,0.48684096336364746,1.9251477718353271,-8.015228271484375,-0.4962569773197174,-0.19953273236751556,0.3157110810279846,0.08774152398109436,0.38151946663856506,0.06979839503765106
1757673941504444967,0.9959762096405029,0.9492626786231995,-6.990743637084961,-0.19578082859516144,-0.4841301441192627,0.34160909056663513,0.06734953075647354,0.40287908911705017,0.07538652420043945
1757673941504472535,0.6098475456237793,-1.4030190706253052,-8.80916976928711,0.8495107889175415,-0.7418935298919678,0.26201143860816956,0.06734953075647354,0.40287908911705017,0.07538652420043945
1757673941511840151,-1.373587965965271,-0.4364174008369446,-11.778045654296875,0.9737110137939453,-0.3717957139015198,0.24513588845729828,0.06734953075647354,0.40287908911705017,0.07538652420043945
1757673941511869508,-0.41713207960128784,-0.974205493927002,-14.194629669189453,0.6281483769416809,-0.05293978005647659,0.24280400574207306,0.06734953075647354,0.40287908911705017,0.07538652420043945
1757673941521842596,-0.3277129828929901,-0.24345263838768005,-13.782426834106445,-0.16864240169525146,0.11807236820459366,0.2592132091522217,0.0675666406750679,0.41560205817222595,0.0754227489233017
1757673941521867541,0.24294495582580566,-0.27774620056152344,-12.029016494750977,-0.9058352708816528,0.13885991275310516,0.30112728476524353,0.0675666406750679,0.41560205817222595,0.0754227489233017
1757673941531848958,-0.1376560926437378,-0.8037558794021606,-9.1605863571167,-0.7581496834754944,0.15710730850696564,0.27934348583221436,0.0675666406750679,0.41560205817222595,0.0754227489233017
1757673941531877951,0.06930092722177505,-1.0315970182418823,-7.004634857177734,-0.23850150406360626,0.19651366770267487,0.24747903645038605,0.0675666406750679,0.41560205817222595,0.0754227489233017
1757673941539374898,0.6437553763389587,-1.0418920516967773,-6.177075386047363,0.33691954612731934,0.04066963121294975,0.19603568315505981,0.06459563225507736,0.4234066307544708,0.08899429440498352
1757673941546839208,0.8639516234397888,-0.6377354264259338,-7.213414192199707,0.4741935729980469,-0.2422727346420288,0.17449600994586945,0.06459563225507736,0.4234066307544708,0.08899429440498352
1757673941546865454,0.4409245550632477,-1.1438134908676147,-9.342589378356934,0.42213693261146545,-0.4473661184310913,0.15346978604793549,0.06459563225507736,0.4234066307544708,0.08899429440498352
1757673941556841717,-0.32945817708969116,-0.7636784315109253,-11.672041893005371,0.2609170973300934,-0.37492161989212036,0.14439037442207336,0.06459563225507736,0.4234066307544708,0.08899429440498352
1757673941556870248,-0.6234052181243896,-0.25280243158340454,-13.228753089904785,0.08025509119033813,-0.13808980584144592,0.14746105670928955,0.06459563225507736,0.4234066307544708,0.08899429440498352
1757673941564422191,-0.6254825592041016,-0.18457654118537903,-12.984134674072266,-0.17526637017726898,0.15495479106903076,0.15916165709495544,0.06868058443069458,0.4397937059402466,0.09957115352153778
1757673941564447512,-0.14721569418907166,-0.45410218834877014,-11.322312355041504,-0.30028441548347473,0.30915817618370056,0.1541052609682083,0.06868058443069458,0.4397937059402466,0.09957115352153778
1757673941574393705,0.34688055515289307,-0.1193096935749054,-9.134735107421875,-0.44137248396873474,0.27488794922828674,0.15262587368488312,0.06868058443069458,0.4397937059402466,0.09957115352153778
1757673941584321790,0.7209046483039856,0.29226022958755493,-7.697756290435791,-0.4052785634994507,0.06422959268093109,0.15299910306930542,0.06868058443069458,0.4397937059402466,0.09957115352153778
1757673941584347965,0.3159511089324951,0.026017727330327034,-7.122579097747803,-0.09390932321548462,-0.08671417832374573,0.1412094533443451,0.06539120525121689,0.4406864643096924,0.10624318569898605
1757673941594231357,0.20627175271511078,-0.009933712892234325,-7.505793571472168,0.26288431882858276,-0.14178849756717682,0.12348747998476028,0.06539120525121689,0.4406864643096924,0.10624318569898605
1757673941594246160,0.40820783376693726,0.15573924779891968,-8.738198280334473,0.4460905194282532,-0.24404045939445496,0.11702405661344528,0.06539120525121689,0.4406864643096924,0.10624318569898605
1757673941604390603,0.10168346017599106,0.11378328502178192,-10.412507057189941,0.37939873337745667,-0.3009437322616577,0.11914945393800735,0.06923246383666992,0.45934629440307617,0.10648417472839355
1757673941604415895,-0.22833098471164703,-0.24604201316833496,-11.647805213928223,0.18819768726825714,-0.2143668830394745,0.12286633998155594,0.06923246383666992,0.45934629440307617,0.10648417472839355
1757673941611871476,-0.3223336935043335,-0.15528444945812225,-12.108246803283691,0.008426303043961525,-0.06531716883182526,0.12271692603826523,0.06923246383666992,0.45934629440307617,0.10648417472839355
1757673941611900151,-0.27942413091659546,0.18360981345176697,-11.762993812561035,-0.19207578897476196,0.07988233119249344,0.13175329566001892,0.06923246383666992,0.45934629440307617,0.10648417472839355
1757673941621793236,-0.05578049272298813,0.5933526158332825,-10.739850044250488,-0.32508522272109985,0.15414997935295105,0.14504525065422058,0.05920569971203804,0.45856836438179016,0.12305039912462234
1757673941621809841,0.10564873367547989,0.8890529274940491,-9.44459056854248,-0.3448796570301056,0.15157292783260345,0.15920333564281464,0.05920569971203804,0.45856836438179016,0.12305039912462234
1757673941629369265,0.22601281106472015,1.0990686416625977,-8.521413803100586,-0.18182793259620667,0.09468699246644974,0.17149238288402557,0.05920569971203804,0.45856836438179016,0.12305039912462234
1757673941629395700,0.17160816490650177,0.6656678318977356,-7.920781135559082,0.0796460434794426,0.04060790315270424,0.1737205684185028,0.05920569971203804,0.45856836438179016,0.12305039912462234
1757673941639400654,0.33083951473236084,0.5348237752914429,-7.941693305969238,0.26062753796577454,-0.04380954056978226,0.17045119404792786,0.05920569971203804,0.45856836438179016,0.12305039912462234
1757673941649387793,0.4715771973133087,0.9051589369773865,-8.588056564331055,0.19079166650772095,-0.19357629120349884,0.1805725246667862,0.05920569971203804,0.45856836438179016,0.12305039912462234
1757673941649413583,0.3175763487815857,1.0224584341049194,-9.418940544128418,0.005180442705750465,-0.32474493980407715,0.2017575055360794,0.05897831544280052,0.4668652415275574,0.10927482694387436
1757673941656831838,-0.09426795691251755,1.086276888847351,-10.401204109191895,0.044986966997385025,-0.32162410020828247,0.21698467433452606,0.05897831544280052,0.4668652415275574,0.10927482694387436
1757673941656859518,-0.5069628357887268,1.0251569747924805,-11.047202110290527,0.17052161693572998,-0.15663228929042816,0.23699547350406647,0.05897831544280052,0.4668652415275574,0.10927482694387436
1757673941666886870,-0.3331654965877533,0.6378971338272095,-11.088842391967773,0.261192262172699,0.014615543186664581,0.24239163100719452,0.05198085680603981,0.4614431858062744,0.11227281391620636
1757673941666912412,0.07850969582796097,0.8722353577613831,-10.795013427734375,0.06681762635707855,0.057526763528585434,0.25809770822525024,0.05198085680603981,0.4614431858062744,0.11227281391620636
1757673941674402837,0.2876925468444824,0.5759801268577576,-10.37137222290039,-0.1713588386774063,-0.02226896770298481,0.2784196436405182,0.05198085680603981,0.4614431858062744,0.11227281391620636
1757673941674430790,-0.10140763968229294,0.33208799362182617,-9.994474411010742,-0.23582997918128967,-0.010452202521264553,0.28382575511932373,0.05198085680603981,0.4614431858062744,0.11227281391620636
1757673941684424732,-0.05760804936289787,0.6949657797813416,-9.459293365478516,-0.22188149392604828,0.03268277272582054,0.2988872528076172,0.04559406265616417,0.4787338078022003,0.12218717485666275
1757673941684449508,0.1329278200864792,0.25378260016441345,-9.028592109680176,0.051673226058483124,0.01816934160888195,0.29155614972114563,0.04559406265616417,0.4787338078022003,0.12218717485666275
1757673941694415680,0.06547487527132034,0.18713203072547913,-8.928021430969238,0.1429111212491989,0.02090373821556568,0.29166531562805176,0.04559406265616417,0.4787338078022003,0.12218717485666275
1757673941704349165,0.40956076979637146,0.0014147749170660973,-8.751568794250488,0.030292421579360962,-0.06322867423295975,0.2943277657032013,0.04559406265616417,0.4787338078022003,0.12218717485666275
1757673941704374957,0.3673858046531677,-0.28264909982681274,-8.888381004333496,0.008406971581280231,-0.22179672122001648,0.2840554714202881,0.04954574629664421,0.4827762246131897,0.136197030544281
1757673941714356401,-0.05185214430093765,-0.28648003935813904,-9.339421272277832,-0.02056288905441761,-0.2391207069158554,0.28068622946739197,0.04954574629664421,0.4827762246131897,0.136197030544281
1757673941714386491,-0.02965192310512066,-0.7644941210746765,-9.576948165893555,0.10905320197343826,-0.211716890335083,0.2691915035247803,0.04954574629664421,0.4827762246131897,0.136197030544281
1757673941721745738,-0.08406434208154678,-0.9460050463676453,-10.119908332824707,0.25856754183769226,-0.19405174255371094,0.2395382970571518,0.056685954332351685,0.48563024401664734,0.14008843898773193
1757673941721758704,-0.14327137172222137,-0.5156842470169067,-10.580069541931152,0.03647992014884949,-0.15169724822044373,0.2388356328010559,0.056685954332351685,0.48563024401664734,0.14008843898773193
1757673941731852929,0.11411579698324203,-0.6931630969047546,-10.564581871032715,-0.16863413155078888,-0.18180346488952637,0.23306307196617126,0.056685954332351685,0.48563024401664734,0.14008843898773193
1757673941731881010,-0.17491289973258972,-0.6098427772521973,-10.762712478637695,-0.1352904886007309,-0.17822471261024475,0.216078981757164,0.056685954332351685,0.48563024401664734,0.14008843898773193
1757673941739365315,-0.4845248758792877,0.12693221867084503,-11.024630546569824,-0.15098215639591217,-0.05278613418340683,0.21815888583660126,0.05738086253404617,0.5026140213012695,0.15389089286327362
1757673941739390439,-0.2248513102531433,0.08486595749855042,-10.696636199951172,-0.11659601330757141,0.04337518662214279,0.22165732085704803,0.05738086253404617,0.5026140213012695,0.15389089286327362
1757673941749377948,-0.14364466071128845,0.10171360522508621,-10.468132972717285,-0.010565142147243023,0.07804211974143982,0.21453621983528137,0.05738086253404617,0.5026140213012695,0.15389089286327362
1757673941756873194,-0.18221700191497803,0.08232823014259338,-10.235357284545898,-0.08569761365652084,0.12673725187778473,0.22231093049049377,0.05738086253404617,0.5026140213012695,0.15389089286327362
